aX,aY,aZ,gX,gY,gZ
0.836,-0.186,1.476,-46.326,-5.798,-8.118
0.748,0.164,1.406,-29.541,6.287,-7.385
0.677,0.474,1.047,-10.559,17.944,-15.137
0.633,0.583,0.826,-11.780,21.729,-33.142
0.567,0.639,0.807,-39.856,16.235,-49.072
0.502,0.541,0.758,-68.115,14.099,-65.491
0.402,0.323,0.783,-90.210,9.583,-78.552
0.300,-0.020,0.896,-106.873,5.371,-84.961
0.136,-0.085,0.989,-112.183,2.747,-76.050
-0.020,0.076,0.927,-98.694,3.784,-61.279
-0.269,0.470,0.676,-71.228,5.005,-51.208
-0.607,0.831,0.283,-42.664,1.831,-53.223
-0.919,1.197,0.061,-26.855,-14.893,-69.519
-1.178,0.995,0.180,-21.484,-43.091,-98.938
-1.382,0.490,0.390,-33.691,-64.880,-125.000
-1.459,0.175,0.746,-52.795,-81.360,-128.906
-1.472,-0.062,1.068,-62.317,-89.233,-123.535
-1.427,-0.263,1.317,-49.377,-89.172,-118.225
-1.344,-0.400,1.455,-15.259,-82.764,-113.525
-1.279,-0.454,1.417,28.076,-71.716,-110.229
-1.171,-0.626,1.187,69.885,-59.082,-109.192
-1.061,-0.723,0.907,99.487,-50.842,-103.455
-0.985,-0.822,0.646,112.915,-47.974,-92.285
-0.886,-0.904,0.469,112.183,-49.438,-76.599
-0.855,-0.836,0.486,98.145,-54.810,-54.993
-0.795,-0.735,0.600,76.660,-57.861,-33.142
-0.768,-0.556,0.810,56.213,-60.059,-12.634
-0.728,-0.385,1.050,42.297,-58.655,1.587
-0.661,-0.291,1.276,34.607,-53.345,10.742
-0.579,-0.172,1.423,29.541,-41.748,17.883
-0.527,-0.098,1.377,26.917,-25.879,23.254
-0.589,-0.035,1.211,24.048,-8.179,26.794
-0.619,0.105,1.078,18.982,3.357,30.396
-0.687,0.157,0.880,17.578,11.169,31.799
-0.766,0.105,0.724,17.517,13.428,28.870
-0.824,0.093,0.601,14.221,8.545,30.029
-0.873,0.026,0.564,10.498,0.610,32.288
-0.894,0.080,0.578,9.155,-8.423,39.001
-0.889,0.044,0.733,1.831,-17.151,44.495
-0.832,0.024,1.070,-8.728,-22.095,49.805
-0.802,0.138,1.321,-9.521,-17.578,56.824
-0.817,0.248,1.354,-0.244,-4.150,61.279
-0.889,0.312,1.188,12.207,10.681,60.669
-0.927,0.471,1.069,23.315,19.531,60.181
-0.920,0.500,1.019,24.353,23.254,56.458
-0.855,0.380,0.932,15.747,28.625,51.392
-0.763,0.245,0.881,4.395,33.752,50.659
-0.734,0.069,0.792,-1.770,37.781,52.063
-0.680,-0.067,0.671,-0.732,39.246,57.434
-0.618,-0.184,0.709,3.784,33.447,64.636
-0.531,-0.137,0.818,15.808,25.452,75.073
-0.406,-0.017,0.830,35.522,22.278,82.092
-0.281,0.053,0.899,52.673,17.761,82.520
-0.133,0.100,0.927,49.866,15.259,78.979
0.038,0.410,0.984,37.537,16.663,75.378
0.212,0.402,0.888,29.846,22.461,58.594
0.307,0.211,0.811,18.494,28.748,36.438
0.354,-0.102,0.702,2.869,32.104,21.118
0.401,-0.363,0.725,-13.428,28.748,13.733
0.459,-0.532,0.851,-19.226,22.400,12.207
0.531,-0.661,0.995,-14.587,16.663,13.794
0.612,-0.649,1.093,-4.517,15.076,18.738
0.661,-0.458,1.090,10.071,16.968,25.452
0.685,-0.198,1.060,20.386,19.775,28.625
0.676,-0.016,0.984,22.278,21.545,23.254
0.659,-0.104,0.974,14.099,22.705,11.353
0.634,-0.319,1.005,-2.930,23.315,0.732
0.591,-0.431,1.006,-11.597,24.475,-2.686
0.546,-0.502,0.964,-6.470,23.193,-3.113
0.519,-0.535,0.955,3.357,18.860,-1.221
0.536,-0.449,1.043,6.958,12.390,4.395
0.544,-0.314,1.149,10.742,8.362,9.583
0.549,-0.203,1.205,14.099,8.057,10.620
0.519,-0.121,1.171,15.259,10.986,8.911
0.476,-0.016,1.150,9.888,12.817,6.226
0.445,-0.050,1.166,3.052,14.282,0.122
0.376,-0.078,1.230,-5.676,15.747,-4.578
0.302,-0.185,1.249,-10.742,18.555,-9.155
0.265,-0.279,1.211,-6.409,20.508,-12.634
0.262,-0.345,1.204,1.709,20.630,-13.916
0.250,-0.328,1.103,10.986,21.606,-11.536
0.245,-0.270,1.004,20.325,21.301,-9.521
0.260,-0.302,0.933,23.743,18.250,-8.362
0.312,-0.283,0.937,21.118,15.686,-5.493
0.343,-0.208,0.942,20.020,15.137,-3.052
0.349,-0.185,0.849,25.635,17.578,-3.540
0.357,-0.159,0.778,29.602,19.470,-6.165
0.365,-0.205,0.763,26.245,18.982,-9.399
0.379,-0.277,0.736,24.170,19.165,-12.451
0.414,-0.288,0.766,21.423,17.273,-12.939
0.458,-0.295,0.724,23.315,16.724,-12.878
0.499,-0.293,0.621,25.879,16.235,-12.878
0.521,-0.273,0.544,25.818,12.634,-11.292
0.520,-0.277,0.463,24.109,7.874,-10.315
0.520,-0.333,0.448,21.057,0.671,-10.620
0.510,-0.323,0.518,14.771,-7.568,-8.728
0.468,-0.292,0.587,5.615,-14.526,-7.019
0.446,-0.318,0.729,-7.141,-20.691,-8.118
0.414,-0.309,0.858,-18.250,-24.475,-8.118
0.369,-0.309,0.964,-25.452,-25.696,-7.446
0.333,-0.391,1.025,-28.381,-25.024,-7.690
0.291,-0.402,1.061,-23.987,-24.780,-5.371
0.258,-0.335,1.079,-15.747,-24.902,-1.770
0.241,-0.282,1.109,-10.376,-25.208,-0.549
0.237,-0.221,1.168,-8.667,-24.719,-0.305
0.220,-0.203,1.232,-9.277,-22.034,-1.770
0.205,-0.210,1.246,-9.949,-16.296,-3.540
0.184,-0.264,1.254,-10.254,-10.742,-5.066
0.158,-0.324,1.197,-6.958,-5.188,-5.432
0.140,-0.348,1.130,-0.977,-2.014,-3.723
0.147,-0.304,1.113,4.211,-1.282,-0.732
0.156,-0.208,1.107,6.714,-0.488,1.343
0.161,-0.175,1.108,5.676,1.404,0.854
0.141,-0.202,1.064,2.869,5.371,-1.404
0.110,-0.279,1.004,0.122,8.972,-3.540
0.080,-0.349,0.935,-0.671,10.559,-4.150
0.065,-0.402,0.873,-0.366,9.094,-2.380
0.052,-0.419,0.856,2.075,5.676,0.671
0.060,-0.377,0.853,5.249,2.014,5.127

-1.857,-0.173,0.720,-52.063,-24.658,-109.985
-1.792,-0.137,0.960,-22.095,-38.452,-103.149
-1.642,-0.260,1.171,5.737,-48.828,-102.966
-1.365,-0.445,1.364,29.297,-51.514,-102.417
-1.089,-0.699,1.424,50.781,-45.349,-97.107
-0.884,-0.839,1.316,66.406,-30.884,-82.947
-0.801,-0.838,1.083,74.585,-15.564,-62.683
-0.765,-0.816,0.939,77.454,-6.104,-43.701
-0.766,-0.844,0.753,79.102,-1.953,-24.658
-0.759,-0.705,0.725,76.477,-3.296,-3.662
-0.744,-0.414,0.796,72.388,-9.460,17.029
-0.691,-0.181,0.870,67.017,-13.367,29.785
-0.653,-0.033,0.896,57.617,-13.672,35.828
-0.621,0.028,0.907,44.495,-11.230,39.917
-0.584,-0.057,0.896,28.931,-8.667,42.419
-0.604,-0.129,0.905,14.893,-5.798,47.363
-0.643,-0.161,0.895,11.108,-2.686,53.711
-0.712,-0.095,0.832,13.794,-2.014,59.082
-0.781,-0.050,0.750,23.071,-3.967,60.852
-0.833,-0.087,0.738,31.860,-8.789,59.509
-0.872,-0.107,0.774,33.508,-13.306,60.486
-0.882,-0.098,0.862,28.809,-15.503,64.087
-0.869,-0.048,1.002,13.916,-13.855,68.787
-0.846,-0.007,1.136,1.282,-8.972,72.449
-0.850,0.016,1.140,-6.653,0.854,73.853
-0.864,-0.003,1.070,-8.789,10.498,74.402
-0.853,-0.080,1.029,-8.240,16.724,74.646
-0.832,-0.108,1.086,-9.766,20.691,78.613
-0.829,-0.146,1.017,-9.216,29.114,83.862
-0.835,-0.050,0.900,-1.526,36.133,88.196
-0.781,0.011,0.790,5.371,34.424,88.440
-0.679,-0.092,0.756,2.380,28.076,84.534
-0.549,-0.149,0.799,-5.676,21.179,84.534
-0.399,-0.224,0.841,-6.592,16.541,85.388
-0.264,-0.275,0.906,-3.540,14.526,86.060
-0.170,-0.193,0.982,1.038,13.672,88.440
-0.075,-0.026,1.005,4.639,15.930,88.196
-0.030,-0.009,1.156,1.648,18.311,81.726
-0.007,-0.046,1.119,-6.226,26.184,73.425
0.062,-0.116,1.078,-11.780,33.569,66.406
0.159,-0.198,1.163,-12.146,34.363,58.594
0.246,-0.268,1.104,-7.446,38.940,52.917
0.298,-0.339,1.020,-4.456,43.335,49.194
0.346,-0.321,0.959,-0.732,43.152,46.997
0.429,-0.330,0.960,8.972,39.673,42.297
0.504,-0.375,0.948,19.592,37.659,34.912
0.584,-0.351,0.985,19.348,37.842,32.104
0.667,-0.217,1.077,5.859,39.368,32.837
0.775,-0.013,1.083,-2.991,45.288,28.259
0.867,-0.127,1.069,-12.024,54.138,14.343
0.896,-0.326,1.040,-22.522,62.927,0.000
0.931,-0.485,0.967,-26.001,70.068,-5.981
0.974,-0.513,0.886,-23.315,74.402,-7.629
1.030,-0.474,0.786,-13.672,74.097,-6.470
1.099,-0.386,0.672,-4.578,70.679,-5.188
1.205,-0.194,0.592,1.160,64.514,-2.014
1.298,-0.106,0.588,0.427,55.542,-1.709
1.355,-0.019,0.483,-0.366,49.500,-0.977
1.384,0.144,0.406,6.714,40.894,0.305
1.366,0.422,0.324,14.343,30.396,0.916
1.310,0.648,0.274,15.076,19.531,-2.136
1.226,0.788,0.292,8.728,7.996,-11.230
1.073,0.728,0.316,-1.160,-0.793,-25.574
0.902,0.455,0.418,-16.785,-9.583,-42.480
0.721,0.117,0.589,-28.625,-19.531,-55.115
0.546,-0.214,0.737,-32.532,-26.489,-61.707
0.411,-0.516,0.869,-28.137,-31.677,-63.416
0.283,-0.691,0.925,-17.334,-33.936,-58.960
0.179,-0.803,0.970,-8.118,-35.583,-50.476
0.124,-0.917,1.079,-5.066,-37.598,-41.321
0.108,-0.965,1.177,-1.709,-36.865,-30.701
0.134,-0.896,1.234,5.188,-32.959,-19.226
0.142,-0.780,1.195,12.268,-25.940,-9.888
0.170,-0.659,1.146,14.648,-20.020,-3.235
0.181,-0.543,1.046,13.489,-14.465,1.465
0.203,-0.498,0.984,11.475,-11.902,4.883
0.236,-0.457,1.006,8.728,-12.634,8.423
0.260,-0.393,1.010,9.705,-12.390,12.756
0.277,-0.317,1.010,12.268,-11.353,16.174
0.281,-0.175,0.957,15.015,-9.644,18.677
0.268,-0.070,0.910,16.113,-8.240,17.700
0.249,-0.039,0.880,13.672,-7.690,14.038
0.227,-0.043,0.905,9.216,-7.996,9.827
0.196,-0.122,0.914,4.517,-7.812,5.249
0.167,-0.202,0.911,-0.549,-8.057,2.258
0.137,-0.272,0.904,-2.380,-8.850,1.099
0.111,-0.347,0.864,-1.709,-10.864,1.404
0.101,-0.387,0.897,0.061,-14.771,3.662
0.112,-0.344,0.944,2.869,-18.005,6.653
0.137,-0.243,1.001,6.592,-19.226,8.423
0.163,-0.126,1.041,7.324,-17.151,7.080
0.159,-0.158,1.044,1.648,-13.062,3.113
0.138,-0.254,1.042,-6.653,-8.484,-0.793
0.113,-0.337,1.005,-9.094,-5.493,-1.953
0.091,-0.400,0.966,-5.737,-4.822,-1.282
0.083,-0.365,0.947,-1.038,-6.165,1.587
0.087,-0.338,0.958,2.869,-8.789,4.517
0.096,-0.325,0.986,6.409,-10.681,6.226
0.118,-0.249,1.026,9.888,-11.230,7.812
0.146,-0.175,1.049,11.475,-9.521,7.263
0.150,-0.161,1.014,8.667,-5.188,3.906
0.145,-0.183,0.984,2.930,-2.258,1.099
0.135,-0.232,0.948,-0.732,-0.793,-1.099
0.128,-0.290,0.921,-0.793,-1.038,-1.892
0.131,-0.297,0.932,2.075,-2.258,-1.099
0.144,-0.291,0.958,5.371,-3.845,0.610
0.146,-0.238,0.937,9.644,-4.150,1.953
0.160,-0.193,0.922,11.353,-4.395,2.197
0.182,-0.141,0.960,8.789,-4.761,0.977
0.178,-0.183,0.959,2.930,-2.747,-1.404
0.156,-0.272,0.935,-1.587,-1.099,-3.845
0.142,-0.326,0.928,-2.441,-1.099,-4.028
0.140,-0.332,0.934,0.183,-1.709,-2.625
0.142,-0.333,0.949,2.930,-2.014,-0.732
0.141,-0.340,0.958,3.601,-2.258,0.916
0.148,-0.300,0.965,4.944,-1.892,2.808
0.146,-0.246,0.943,5.859,-0.793,3.174
0.134,-0.221,0.891,4.700,-0.244,2.319
0.136,-0.233,0.896,1.770,-0.854,0.671

-1.375,-0.409,1.207,-11.841,-58.044,-99.976
-1.167,-0.567,1.417,1.709,-53.955,-95.642
-0.982,-0.609,1.473,27.344,-42.725,-85.632
-0.885,-0.631,1.258,53.650,-24.475,-74.524
-0.884,-0.539,0.982,77.515,-11.047,-61.462
-0.881,-0.557,0.662,83.862,-6.836,-48.401
-0.841,-0.497,0.684,70.435,-15.869,-29.724
-0.776,-0.335,0.876,48.584,-27.832,-8.301
-0.641,-0.141,1.170,31.494,-36.011,7.568
-0.510,-0.044,1.369,24.963,-34.485,16.052
-0.454,0.005,1.366,20.447,-21.729,21.423
-0.508,0.121,1.252,13.123,-7.202,27.710
-0.525,0.100,1.176,3.662,2.136,30.457
-0.576,0.058,1.136,-5.249,6.287,34.363
-0.635,0.048,1.071,-6.042,8.362,39.246
-0.676,-0.011,0.998,-3.967,7.263,42.542
-0.702,-0.022,0.927,7.080,2.258,46.326
-0.680,0.020,0.889,24.231,-5.554,50.415
-0.665,-0.032,0.884,40.283,-14.404,51.392
-0.666,-0.031,0.906,47.791,-20.752,53.833
-0.662,0.071,1.044,42.786,-25.574,59.082
-0.666,0.170,1.218,29.419,-25.696,62.256
-0.670,0.159,1.389,11.841,-18.860,61.035
-0.675,-0.015,1.488,-7.080,-5.615,57.373
-0.738,-0.149,1.501,-17.822,10.437,57.373
-0.820,-0.202,1.231,-10.742,28.625,60.364
-0.892,-0.353,0.964,11.047,38.879,59.265
-0.899,-0.521,0.714,34.058,36.743,59.570
-0.898,-0.522,0.611,50.659,25.818,67.993
-0.871,-0.305,0.594,56.213,13.855,80.688
-0.804,-0.124,0.620,53.955,5.127,88.257
-0.705,-0.066,0.717,32.043,-0.488,89.111
-0.591,-0.093,0.869,2.380,-1.587,87.280
-0.492,-0.221,0.917,-21.179,4.272,83.374
-0.411,-0.273,0.891,-27.710,11.597,81.665
-0.340,-0.273,0.784,-23.743,16.541,80.750
-0.277,-0.280,0.704,-16.724,15.198,78.613
-0.200,-0.302,0.695,-14.404,8.057,77.148
-0.147,-0.252,0.749,-17.517,1.343,76.721
-0.096,-0.207,0.807,-16.113,-3.540,75.073
-0.060,-0.193,0.805,-8.789,-5.981,70.557
-0.006,-0.175,0.864,-7.263,-8.850,66.833
0.061,-0.191,0.923,-7.263,-10.315,62.073
0.132,-0.175,0.959,-0.488,-10.254,57.739
0.241,-0.186,0.931,5.798,-8.911,52.429
0.349,-0.271,1.034,7.385,-9.888,45.837
0.437,-0.266,1.125,6.531,-6.775,42.297
0.482,-0.199,1.176,5.554,0.427,41.504
0.480,-0.200,1.138,6.775,9.216,37.476
0.469,-0.177,1.035,13.123,17.029,32.654
0.457,-0.066,0.951,25.146,19.165,28.198
0.486,-0.083,0.784,38.696,17.944,20.935
0.544,-0.103,0.747,42.236,11.963,14.709
0.632,0.077,0.903,35.217,4.089,11.963
0.759,0.049,1.127,25.330,2.014,2.502
0.855,-0.077,1.216,22.339,9.705,-10.315
0.882,-0.107,1.277,17.456,21.790,-15.747
0.870,-0.132,1.169,17.212,35.339,-18.005
0.831,-0.232,1.046,19.104,45.288,-20.691
0.766,-0.224,0.874,19.592,49.255,-19.531
0.723,-0.043,0.778,21.545,46.326,-18.433
0.721,0.016,0.726,30.334,36.987,-26.733
0.769,-0.112,0.747,38.757,28.931,-40.039
0.833,-0.276,0.821,30.823,24.231,-46.936
0.857,-0.296,0.935,13.123,23.682,-45.227
0.840,-0.299,0.931,0.549,27.832,-44.922
0.793,-0.410,0.900,-1.831,32.532,-50.537
0.721,-0.505,0.784,7.935,35.889,-54.138
0.647,-0.556,0.694,15.625,35.522,-52.490
0.592,-0.578,0.609,17.578,30.945,-48.157
0.561,-0.686,0.585,12.817,23.315,-43.579
0.544,-0.729,0.619,5.493,13.367,-35.645
0.533,-0.642,0.694,0.610,4.089,-25.208
0.526,-0.580,0.770,-0.366,-3.113,-17.883
0.525,-0.561,0.861,0.000,-8.179,-14.282
0.506,-0.523,0.926,0.244,-10.132,-9.827
0.475,-0.459,0.955,-0.793,-9.033,-5.310
0.447,-0.406,1.012,-4.822,-7.385,-2.747
0.399,-0.409,1.051,-9.277,-4.578,-2.197
0.333,-0.407,1.033,-9.216,-1.343,-1.221
0.269,-0.441,0.979,-5.920,0.549,-0.549
0.241,-0.462,0.992,-8.057,0.671,-0.244
0.231,-0.439,1.024,-12.329,0.183,1.587
0.221,-0.415,1.016,-14.221,1.648,4.028
0.201,-0.406,1.005,-15.991,4.272,5.249
0.179,-0.404,0.976,-15.686,5.310,5.676
0.149,-0.333,0.895,-14.343,6.287,7.324
0.127,-0.304,0.835,-15.015,4.883,7.019
0.118,-0.286,0.818,-15.686,1.404,5.737
0.113,-0.334,0.847,-18.616,-2.014,4.089
0.105,-0.391,0.898,-20.996,-4.211,3.357
0.099,-0.468,0.924,-20.691,-5.188,3.967
0.088,-0.511,0.947,-16.113,-5.493,6.653
0.078,-0.471,0.912,-8.667,-5.981,11.169
0.077,-0.395,0.896,-1.404,-7.874,15.076
0.082,-0.309,0.908,1.526,-10.742,17.151
0.099,-0.231,0.939,0.305,-11.658,17.029
0.106,-0.205,0.983,-4.822,-11.353,14.587
0.096,-0.180,1.004,-10.376,-9.033,10.864
0.085,-0.232,0.993,-14.526,-6.836,6.653
0.071,-0.257,0.999,-15.747,-6.165,4.211
0.062,-0.301,1.002,-13.977,-6.348,3.601
0.059,-0.352,1.027,-10.315,-6.836,4.089
0.052,-0.341,1.044,-6.042,-7.507,6.714
0.053,-0.296,1.035,0.183,-6.653,8.728
0.064,-0.256,1.040,5.188,-5.981,8.850
0.078,-0.198,1.026,5.371,-4.089,7.751
0.078,-0.210,1.003,2.258,-1.587,5.066
0.076,-0.275,0.978,-3.113,0.549,2.136
0.075,-0.335,0.967,-6.165,1.465,0.977
0.081,-0.350,0.946,-4.578,1.709,1.648
0.083,-0.355,0.920,0.488,1.404,2.197
0.095,-0.328,0.916,4.395,0.061,3.418
0.097,-0.310,0.899,6.165,-0.549,4.395
0.103,-0.283,0.907,5.920,-0.916,4.639
0.111,-0.263,0.902,3.662,-1.099,4.639
0.116,-0.277,0.896,0.549,-0.793,3.845
0.113,-0.300,0.889,-2.075,-0.916,3.662
0.101,-0.313,0.865,-1.892,-1.282,4.211

-1.786,0.026,0.861,-69.092,-74.585,-136.780
-1.813,-0.053,1.060,-73.303,-74.524,-128.906
-1.753,-0.169,1.344,-70.068,-74.951,-123.169
-1.615,-0.393,1.592,-52.734,-70.984,-119.934
-1.429,-0.576,1.731,-27.649,-60.303,-113.098
-1.215,-0.725,1.682,8.545,-44.983,-102.478
-1.059,-0.879,1.414,46.814,-26.794,-89.355
-0.980,-0.908,1.079,80.750,-12.756,-70.862
-0.915,-0.888,0.761,111.450,-7.874,-50.232
-0.874,-0.816,0.611,128.662,-12.085,-27.832
-0.817,-0.555,0.653,124.084,-21.545,-1.709
-0.735,-0.266,0.835,107.422,-29.968,20.630
-0.649,0.063,1.075,86.670,-32.227,34.363
-0.603,0.283,1.147,65.491,-25.146,38.696
-0.534,0.323,1.195,44.006,-15.564,35.278
-0.484,0.273,1.217,21.667,-5.920,31.128
-0.477,0.242,1.224,2.136,5.005,30.396
-0.502,0.244,1.158,-10.986,15.930,31.616
-0.537,0.221,1.004,-12.085,24.719,31.311
-0.605,0.238,0.907,-9.827,27.893,30.457
-0.629,0.187,0.795,-8.240,25.940,29.297
-0.657,0.141,0.745,-7.935,20.142,29.968
-0.676,0.135,0.746,-2.625,11.658,31.982
-0.657,0.144,0.774,2.502,3.235,33.447
-0.626,0.116,0.842,9.277,-3.601,34.424
-0.538,0.076,1.013,14.099,-9.460,36.560
-0.485,-0.002,1.257,16.296,-10.254,39.124
-0.492,0.052,1.287,22.522,-1.648,45.105
-0.515,0.117,1.158,33.813,10.315,47.241
-0.553,0.216,1.036,42.969,16.541,46.082
-0.592,0.184,0.924,41.626,17.395,41.260
-0.610,0.077,0.883,33.081,14.465,36.865
-0.584,-0.106,0.870,23.315,12.390,34.241
-0.544,-0.233,0.901,17.700,11.108,36.499
-0.527,-0.365,0.907,18.494,11.780,41.565
-0.514,-0.368,0.889,24.719,13.245,47.974
-0.496,-0.327,0.849,36.072,13.672,52.673
-0.458,-0.320,0.811,40.955,13.428,53.223
-0.426,-0.337,0.780,40.222,12.085,53.284
-0.370,-0.365,0.713,35.461,11.841,54.260
-0.345,-0.317,0.742,28.198,9.949,57.495
-0.290,-0.312,0.777,13.184,7.568,58.655
-0.241,-0.392,0.852,-0.061,6.165,57.129
-0.203,-0.524,0.957,-10.315,6.287,56.335
-0.196,-0.644,0.953,-10.681,10.071,58.899
-0.189,-0.752,0.895,-1.770,13.550,63.599
-0.172,-0.633,0.812,11.292,14.343,71.289
-0.117,-0.391,0.761,24.902,11.597,76.233
-0.030,-0.333,0.771,29.358,6.714,72.083
0.038,-0.266,0.861,20.447,3.906,68.237
0.078,-0.193,0.946,6.775,4.333,65.125
0.092,-0.272,1.039,-2.930,6.592,57.007
0.146,-0.426,1.129,-5.310,10.376,48.218
0.197,-0.472,1.192,-4.395,16.541,45.654
0.230,-0.416,1.166,-2.869,24.414,48.340
0.266,-0.221,1.142,0.977,30.029,50.293
0.315,-0.086,1.127,9.583,32.532,45.410
0.370,-0.064,1.122,16.052,35.034,35.095
0.452,0.030,1.107,20.630,37.598,26.123
0.550,0.075,1.086,22.705,41.565,15.076
0.672,0.040,1.060,18.188,47.485,2.686
0.715,-0.037,1.035,6.531,55.481,-6.775
0.733,-0.113,0.943,-3.174,63.904,-12.634
0.745,-0.179,0.869,-5.310,67.078,-17.273
0.766,-0.197,0.782,-2.686,66.833,-21.179
0.820,-0.126,0.762,4.883,62.134,-24.048
0.860,-0.086,0.723,15.930,56.091,-29.053
0.895,-0.072,0.616,24.231,51.208,-34.363
0.946,-0.071,0.602,25.940,44.189,-38.025
0.976,-0.095,0.632,20.691,38.269,-40.344
0.983,-0.139,0.642,10.620,34.912,-41.931
0.974,-0.170,0.661,2.075,31.128,-41.504
0.907,-0.189,0.633,-1.709,27.283,-39.795
0.817,-0.154,0.553,3.662,21.667,-37.231
0.755,-0.183,0.507,10.681,11.414,-37.598
0.701,-0.207,0.575,11.780,-1.221,-37.720
0.662,-0.257,0.664,6.897,-10.864,-36.865
0.643,-0.330,0.903,-4.272,-18.982,-36.133
0.600,-0.411,1.032,-12.207,-20.325,-34.485
0.534,-0.497,1.097,-14.771,-17.395,-32.898
0.457,-0.581,1.096,-12.939,-14.526,-30.579
0.375,-0.644,1.086,-5.676,-12.573,-26.062
0.302,-0.693,1.084,-1.587,-11.963,-20.020
0.253,-0.753,1.100,-0.854,-12.024,-13.611
0.242,-0.760,1.145,0.854,-12.817,-6.287
0.254,-0.686,1.160,3.601,-10.986,0.793
0.260,-0.558,1.176,3.540,-7.507,6.653
0.252,-0.468,1.132,1.221,-2.258,9.338
0.232,-0.438,1.087,-3.723,2.441,9.888
0.212,-0.429,1.041,-7.141,5.676,10.376
0.183,-0.401,0.983,-6.775,7.568,11.902
0.163,-0.383,0.909,-3.357,7.263,13.611
0.157,-0.360,0.881,-0.061,4.761,15.869
0.147,-0.292,0.858,2.136,1.709,18.127
0.153,-0.202,0.851,5.554,-0.977,19.226
0.162,-0.151,0.889,6.714,-3.113,17.212
0.161,-0.120,0.893,2.930,-2.869,13.672
0.155,-0.168,0.917,-3.174,-2.380,9.155
0.128,-0.240,0.925,-8.850,-1.282,5.310
0.090,-0.313,0.899,-10.437,-0.244,3.296
0.059,-0.394,0.856,-6.348,-0.488,2.991
0.039,-0.396,0.854,-1.160,-2.686,5.737
0.029,-0.318,0.841,5.310,-5.493,9.216
0.040,-0.274,0.868,10.132,-9.277,9.888
0.072,-0.200,0.922,10.925,-11.292,8.789
0.089,-0.075,0.946,6.897,-10.132,6.653
0.094,-0.140,0.957,-1.587,-7.629,0.732
0.091,-0.224,0.968,-9.949,-4.639,-4.028
0.074,-0.290,0.989,-14.099,-2.502,-5.615
0.055,-0.348,0.962,-11.108,-1.099,-5.798
0.040,-0.401,0.940,-3.418,-0.977,-4.395
0.038,-0.416,0.944,3.357,-2.197,-1.404
0.045,-0.383,0.947,9.155,-3.662,2.625
0.070,-0.302,0.955,13.550,-5.066,5.554
0.116,-0.151,0.960,16.479,-5.066,5.920
0.143,-0.087,0.940,11.536,-2.808,2.197
0.144,-0.133,0.919,0.244,0.061,-3.235
0.130,-0.219,0.902,-8.179,2.075,-7.568
0.118,-0.341,0.903,-9.827,2.930,-10.315

-2.066,0.360,0.459,-46.143,-20.447,-146.790
-2.293,0.170,0.364,-44.312,-26.306,-152.527
-2.365,-0.030,0.489,-53.528,-45.532,-154.297
-2.221,-0.374,0.877,-65.979,-72.937,-152.222
-1.910,-0.789,1.451,-71.533,-93.872,-144.043
-1.483,-1.109,1.939,-51.453,-98.511,-127.075
-1.093,-1.366,2.117,-3.113,-81.665,-105.957
-0.832,-1.500,1.865,61.340,-49.133,-80.383
-0.762,-1.438,1.377,123.474,-17.090,-48.828
-0.771,-1.167,0.880,167.847,1.160,-15.076
-0.800,-0.774,0.556,185.791,3.662,17.090
-0.822,-0.306,0.470,171.021,-4.700,44.189
-0.771,0.254,0.610,137.329,-18.066,64.087
-0.692,0.651,0.867,92.468,-27.649,68.420
-0.572,0.750,1.029,45.044,-25.452,58.167
-0.436,0.614,1.146,4.944,-17.212,43.884
-0.432,0.551,1.119,-20.508,-6.042,33.936
-0.430,0.457,0.916,-31.433,6.653,25.513
-0.486,0.319,0.785,-39.612,10.254,17.883
-0.559,0.205,0.652,-38.696,9.155,13.123
-0.618,0.176,0.591,-38.208,2.502,12.756
-0.644,0.170,0.643,-35.461,-6.958,13.428
-0.666,0.134,0.776,-31.799,-15.503,12.878
-0.644,-0.048,0.876,-25.940,-17.029,9.705
-0.646,-0.201,0.958,-18.433,-16.785,12.024
-0.676,-0.214,0.999,-17.029,-15.381,20.264
-0.687,-0.216,1.048,-16.113,-14.221,27.771
-0.696,-0.206,1.083,-10.376,-13.062,32.104
-0.720,-0.121,1.098,-1.587,-11.780,36.316
-0.709,-0.138,1.109,8.972,-9.705,36.865
-0.682,-0.177,1.064,19.714,-6.592,38.025
-0.659,-0.187,1.030,25.452,-3.967,42.358
-0.630,-0.245,1.007,24.780,-1.526,46.143
-0.620,-0.264,1.007,20.752,0.000,50.232
-0.624,-0.271,1.007,17.639,2.380,53.955
-0.613,-0.353,0.924,16.785,5.981,55.359
-0.565,-0.469,0.920,21.729,7.324,56.152
-0.533,-0.602,0.934,26.001,6.592,57.983
-0.515,-0.593,0.892,32.715,8.545,64.026
-0.502,-0.435,0.807,35.828,9.766,71.045
-0.449,-0.299,0.789,33.752,9.277,71.167
-0.419,-0.379,0.878,24.841,8.362,63.904
-0.406,-0.439,0.896,14.038,12.268,57.800
-0.401,-0.517,0.901,1.465,17.273,54.626
-0.379,-0.630,0.889,-6.775,21.667,52.246
-0.311,-0.725,0.846,-11.597,23.682,52.673
-0.212,-0.772,0.855,-11.597,22.217,56.274
-0.124,-0.766,0.869,-9.460,18.677,62.622
-0.032,-0.561,0.831,-5.371,15.503,70.801
0.048,-0.330,0.917,2.075,9.705,73.120
0.148,-0.248,0.972,3.052,7.141,65.979
0.254,-0.180,1.083,2.686,6.714,57.251
0.366,-0.143,1.198,0.305,8.667,49.805
0.451,-0.035,1.255,-2.014,15.198,43.762
0.537,0.071,1.234,-1.038,22.705,36.072
0.611,0.097,1.310,-0.732,27.832,22.949
0.669,0.007,1.317,-3.784,35.095,8.728
0.711,-0.136,1.255,-5.493,44.067,-2.136
0.730,-0.153,1.226,-2.441,49.438,-5.859
0.778,-0.193,1.144,5.127,52.795,-7.996
0.809,-0.147,1.093,18.677,54.260,-8.118
0.808,-0.082,0.917,33.691,54.565,-5.920
0.795,-0.032,0.762,46.570,51.575,-4.639
0.787,0.039,0.709,49.805,43.091,-3.845
0.787,0.177,0.707,49.438,35.339,-5.005
0.831,0.153,0.804,42.480,29.236,-12.756
0.830,0.083,0.871,28.259,28.076,-22.278
0.777,0.121,0.882,18.372,30.090,-28.015
0.704,-0.029,0.844,13.062,31.677,-39.551
0.596,-0.291,0.766,10.254,33.203,-51.758
0.496,-0.525,0.611,15.930,32.104,-55.908
0.403,-0.695,0.559,18.005,24.780,-52.368
0.339,-0.753,0.519,19.958,14.832,-44.739
0.324,-0.702,0.577,24.170,4.028,-36.865
0.333,-0.687,0.708,24.658,-6.165,-32.349
0.342,-0.722,0.840,22.949,-11.414,-28.992
0.333,-0.704,0.919,19.287,-11.475,-24.109
0.335,-0.698,0.989,12.878,-8.789,-20.142
0.320,-0.794,0.993,9.033,-4.272,-18.799
0.296,-0.841,0.948,9.033,0.244,-13.916
0.264,-0.818,0.898,10.742,2.441,-5.676
0.233,-0.782,0.841,13.550,2.319,1.709
0.227,-0.694,0.789,17.273,0.000,9.460
0.249,-0.559,0.811,20.691,-4.211,16.602
0.272,-0.405,0.839,20.203,-7.019,20.752
0.283,-0.264,0.877,16.479,-7.690,20.935
0.284,-0.247,0.910,8.423,-6.348,16.418
0.267,-0.269,0.948,-0.244,-4.211,12.329
0.235,-0.301,0.956,-6.226,-1.892,9.338
0.202,-0.383,0.937,-8.362,-0.549,7.385
0.175,-0.419,0.928,-5.920,-0.122,7.202
0.143,-0.374,0.911,-0.977,-0.854,9.827
0.127,-0.325,0.880,2.075,-1.221,10.986
0.119,-0.260,0.894,3.357,-3.052,10.193
0.102,-0.255,0.897,2.197,-3.418,6.836
0.078,-0.298,0.897,-1.648,-3.540,2.625
0.057,-0.387,0.902,-7.568,-3.174,-0.671
0.042,-0.452,0.938,-11.719,-3.662,-1.648
0.033,-0.481,0.955,-11.597,-3.784,-1.038
0.033,-0.488,0.965,-8.057,-3.601,0.366
0.037,-0.467,0.948,-4.272,-2.747,2.258
0.040,-0.404,0.953,-2.136,-1.831,4.272
0.042,-0.343,0.941,-1.648,-0.793,3.723
0.026,-0.310,0.888,-1.282,0.916,1.282
0.006,-0.310,0.850,-4.578,1.404,-1.526
0.000,-0.363,0.869,-8.911,0.000,-4.211
-0.001,-0.413,0.909,-12.634,-1.160,-5.066
0.002,-0.469,0.931,-13.184,-1.770,-4.517
0.007,-0.502,0.939,-10.559,-2.502,-2.686
0.007,-0.497,0.922,-5.127,-2.686,0.488
0.014,-0.441,0.911,0.610,-3.418,4.761
0.027,-0.369,0.913,4.517,-4.517,7.629
0.048,-0.282,0.939,6.897,-5.676,8.484
0.071,-0.236,0.971,5.981,-5.493,6.775
0.080,-0.231,0.997,3.296,-3.479,3.174
0.075,-0.230,0.976,0.183,-0.793,-0.305
0.065,-0.236,0.927,-2.502,1.587,-3.540
0.059,-0.286,0.896,-5.005,2.136,-7.080
0.046,-0.380,0.916,-7.080,0.977,-9.338

-1.741,-0.282,0.861,-51.147,-51.453,-131.958
-1.647,-0.323,1.131,-44.067,-62.256,-120.300
-1.503,-0.446,1.437,-34.607,-67.688,-110.046
-1.309,-0.650,1.733,-18.127,-65.857,-99.915
-1.091,-0.792,1.860,10.498,-53.284,-85.754
-0.915,-0.866,1.831,50.415,-35.522,-67.993
-0.789,-0.862,1.589,94.849,-14.709,-48.279
-0.723,-0.729,1.173,131.775,2.441,-27.954
-0.738,-0.490,0.789,154.663,10.010,-8.972
-0.713,-0.286,0.478,161.316,6.042,4.517
-0.663,-0.093,0.412,148.376,-6.165,15.015
-0.577,0.085,0.539,116.150,-19.348,24.048
-0.501,0.262,0.791,75.012,-26.672,29.541
-0.458,0.294,0.918,37.842,-23.315,29.114
-0.418,0.197,1.024,4.639,-15.137,25.391
-0.424,0.130,1.060,-22.095,-5.798,23.804
-0.437,-0.003,0.995,-37.354,2.808,22.583
-0.458,-0.163,0.939,-44.250,7.629,22.156
-0.471,-0.186,0.879,-41.077,8.240,27.405
-0.499,-0.106,0.856,-33.997,4.578,34.485
-0.537,-0.101,0.815,-22.644,0.610,37.903
-0.552,-0.118,0.808,-0.916,-5.310,39.368
-0.556,-0.138,0.887,7.629,-15.015,40.344
-0.555,-0.136,0.984,7.996,-21.667,43.762
-0.554,-0.149,1.099,3.845,-22.278,47.668
-0.550,-0.143,1.158,1.038,-18.433,52.307
-0.565,-0.152,1.156,-0.854,-12.695,54.871
-0.579,-0.189,1.057,-0.549,-6.897,54.138
-0.595,-0.203,0.959,1.465,-3.357,53.650
-0.606,-0.277,0.873,6.042,-2.747,52.917
-0.600,-0.389,0.878,11.902,-5.310,53.223
-0.584,-0.424,0.879,15.137,-7.324,57.739
-0.581,-0.396,0.863,17.029,-7.935,64.148
-0.577,-0.354,0.885,17.944,-9.766,68.909
-0.568,-0.355,0.908,19.714,-11.230,70.923
-0.547,-0.416,0.995,23.682,-12.878,71.350
-0.508,-0.492,1.015,31.677,-12.268,71.411
-0.472,-0.461,1.055,40.161,-10.559,73.425
-0.393,-0.404,1.043,43.640,-6.592,74.463
-0.323,-0.296,0.971,44.067,-0.793,74.585
-0.277,-0.172,0.930,31.128,4.028,74.646
-0.239,-0.138,0.889,12.085,7.996,70.679
-0.210,-0.236,0.911,-3.357,9.644,62.317
-0.186,-0.413,0.902,-8.423,11.414,53.345
-0.151,-0.552,0.852,-4.456,13.000,49.377
-0.122,-0.602,0.823,1.404,12.268,50.842
-0.100,-0.516,0.752,8.911,10.071,55.542
-0.034,-0.422,0.718,14.526,5.127,58.228
0.047,-0.400,0.840,13.489,-1.770,56.763
0.112,-0.391,0.980,6.836,-5.066,55.298
0.186,-0.345,1.015,3.967,-3.113,53.589
0.291,-0.379,1.056,4.028,-0.671,49.377
0.380,-0.361,1.140,2.136,2.563,47.302
0.426,-0.250,1.081,1.648,10.864,47.852
0.491,-0.166,0.958,4.028,18.677,45.349
0.532,-0.181,0.899,3.418,21.057,39.124
0.572,-0.080,0.884,4.333,20.752,35.400
0.623,0.027,0.917,8.362,19.104,29.602
0.662,0.089,0.930,14.832,18.066,18.860
0.687,0.087,0.979,18.250,18.433,7.446
0.701,0.014,0.991,21.545,20.203,-2.747
0.694,-0.011,0.992,23.376,24.048,-8.850
0.685,-0.022,1.010,21.912,27.832,-13.000
0.670,-0.119,0.968,21.667,33.081,-18.860
0.618,-0.065,0.936,19.470,36.926,-23.865
0.559,-0.086,0.864,20.386,39.795,-32.532
0.489,-0.244,0.874,17.273,40.039,-45.471
0.416,-0.388,0.881,9.644,39.795,-54.077
0.374,-0.589,0.832,-0.061,40.405,-59.448
0.342,-0.792,0.840,-8.423,37.781,-60.303
0.347,-0.944,0.873,-12.146,33.936,-55.237
0.377,-1.003,0.901,-6.836,29.663,-46.570
0.412,-1.009,0.892,6.714,26.428,-36.194
0.420,-0.940,0.857,20.447,24.475,-24.353
0.417,-0.789,0.804,28.625,22.400,-13.184
0.448,-0.628,0.811,25.208,19.165,-6.348
0.496,-0.525,0.894,13.916,17.029,-4.395
0.526,-0.454,0.963,0.916,18.494,-5.066
0.525,-0.476,0.957,-8.118,23.499,-7.141
0.503,-0.512,0.905,-13.977,27.832,-6.836
0.467,-0.529,0.837,-14.954,29.541,-3.662
0.411,-0.492,0.768,-9.033,26.550,0.854
0.361,-0.470,0.655,3.418,20.691,4.883
0.343,-0.401,0.641,11.230,10.193,9.277
0.349,-0.337,0.714,12.939,-0.549,12.878
0.349,-0.200,0.804,11.353,-7.080,15.198
0.342,-0.143,0.914,4.272,-10.071,12.878
0.317,-0.159,0.965,-6.836,-8.484,7.080
0.278,-0.225,1.006,-15.747,-5.554,1.892
0.234,-0.334,1.019,-20.081,-2.625,-1.648
0.199,-0.423,1.009,-20.386,-0.549,-2.319
0.173,-0.453,0.998,-17.029,0.122,0.000
0.153,-0.403,0.983,-10.620,0.061,3.784
0.148,-0.341,0.949,-2.075,-0.854,6.470
0.157,-0.276,0.952,4.028,-1.953,6.775
0.170,-0.194,0.948,7.141,-2.197,5.371
0.174,-0.113,0.931,6.042,-0.977,2.258
0.175,-0.134,0.923,-1.099,1.465,-3.601
0.138,-0.217,0.921,-12.146,4.333,-9.338
0.093,-0.385,0.913,-21.484,6.958,-14.343
0.059,-0.549,0.901,-23.193,6.958,-15.686
0.047,-0.627,0.875,-17.822,5.859,-11.841
0.045,-0.586,0.848,-8.667,3.052,-4.822
0.061,-0.488,0.849,0.916,-0.854,1.465
0.085,-0.381,0.861,8.301,-4.089,5.127
0.105,-0.253,0.885,12.512,-6.287,6.592
0.124,-0.209,0.888,9.399,-5.737,3.723
0.130,-0.174,0.910,1.770,-4.089,-0.427
0.113,-0.265,0.900,-9.338,-1.343,-5.737
0.089,-0.330,0.915,-16.235,-0.183,-9.644
0.071,-0.409,0.933,-18.860,0.000,-10.620
0.062,-0.471,0.969,-16.724,-0.427,-9.827
0.062,-0.464,0.989,-10.498,-0.732,-6.592
0.056,-0.442,0.977,-3.296,-0.610,-4.089
0.053,-0.393,0.944,3.357,-0.671,-2.380
0.058,-0.359,0.952,7.568,-1.160,-1.892
0.064,-0.334,0.923,7.202,-0.732,-1.892
0.061,-0.312,0.888,2.808,-0.305,-2.136
0.073,-0.333,0.896,-3.418,-0.977,-2.869

0.591,-0.857,1.174,-8.911,10.437,37.598
0.633,-0.832,1.157,-6.104,12.939,46.631
0.672,-0.796,1.089,-2.930,15.564,56.213
0.723,-0.750,1.085,-0.183,15.198,65.063
0.766,-0.674,1.002,6.775,15.564,72.937
0.813,-0.557,0.911,14.832,14.099,79.956
0.879,-0.376,0.841,19.714,11.536,85.266
0.947,-0.176,0.770,18.433,8.789,86.853
1.006,-0.090,0.784,10.559,4.944,82.153
1.031,-0.077,0.771,0.427,4.089,74.585
1.026,-0.125,0.701,-11.353,4.211,67.200
1.028,-0.139,0.714,-24.048,1.221,61.157
1.029,-0.138,0.728,-29.907,-2.014,56.152
1.028,-0.135,0.719,-33.020,-5.066,51.208
1.029,-0.100,0.749,-31.921,-11.108,46.265
1.029,-0.118,0.802,-28.198,-18.921,40.588
1.003,-0.095,0.848,-22.400,-23.743,34.607
0.969,-0.063,0.863,-18.616,-25.818,28.564
0.932,-0.005,0.937,-18.921,-26.733,20.996
0.880,0.046,0.917,-18.860,-24.597,11.719
0.843,0.115,0.926,-22.705,-22.156,2.563
0.780,0.150,0.923,-26.611,-18.799,-7.141
0.683,0.235,0.875,-28.992,-14.160,-18.311
0.574,0.284,0.752,-26.489,-10.132,-31.921
0.442,0.328,0.596,-24.109,-8.362,-47.241
0.329,0.288,0.484,-20.752,-10.925,-62.195
0.209,0.235,0.504,-21.606,-16.968,-75.012
0.116,0.195,0.590,-18.433,-21.179,-84.167
-0.012,0.226,0.656,-10.193,-21.240,-91.614
-0.193,0.352,0.636,-2.014,-16.235,-97.046
-0.404,0.368,0.436,4.517,-9.521,-105.286
-0.622,0.300,0.323,3.296,-7.690,-113.464
-0.849,0.352,0.245,-4.761,-9.766,-116.760
-1.071,0.404,0.256,-19.958,-14.526,-119.934
-1.299,0.621,0.189,-31.067,-20.508,-126.526
-1.488,0.602,0.320,-36.560,-32.593,-140.686
-1.657,0.318,0.478,-38.757,-43.396,-159.851
-1.794,0.124,0.597,-46.021,-50.964,-165.955
-1.877,-0.123,0.661,-53.528,-57.190,-164.001
-1.872,-0.346,0.904,-61.829,-69.031,-154.236
-1.770,-0.531,1.200,-67.017,-79.590,-139.587
-1.587,-0.651,1.615,-64.087,-86.121,-122.437
-1.350,-0.881,1.959,-42.847,-84.656,-106.567
-1.107,-1.055,2.088,0.427,-70.068,-88.928
-0.943,-1.106,1.982,57.678,-48.218,-65.369
-0.862,-1.081,1.614,114.441,-24.780,-40.161
-0.818,-0.874,1.183,155.762,-9.460,-13.428
-0.812,-0.541,0.882,176.758,-5.554,10.071
-0.755,-0.259,0.638,179.321,-8.850,27.039
-0.705,-0.035,0.632,153.320,-16.602,38.269
-0.685,0.157,0.685,111.084,-22.583,45.532
-0.652,0.220,0.819,63.416,-24.963,46.936
-0.613,0.203,0.958,18.860,-23.132,44.983
-0.590,0.088,1.028,-14.282,-17.212,41.138
-0.586,-0.026,1.055,-35.034,-10.498,39.612
-0.609,-0.086,1.001,-41.138,-5.066,40.710
-0.624,-0.153,0.952,-41.016,-2.563,42.053
-0.688,-0.252,0.827,-21.912,-1.953,43.518
-0.696,-0.311,0.830,0.305,-8.362,45.471
-0.727,-0.321,0.865,10.010,-17.334,49.438
-0.746,-0.276,0.885,10.803,-21.851,53.528
-0.761,-0.164,0.874,8.850,-22.461,58.777
-0.773,-0.148,0.849,1.526,-22.522,59.875
-0.743,-0.237,0.893,-10.742,-24.353,57.861
-0.682,-0.371,1.023,-24.414,-26.611,56.580
-0.655,-0.388,1.109,-33.813,-24.414,60.547
-0.620,-0.314,1.122,-32.959,-18.555,65.369
-0.604,-0.254,1.084,-26.123,-12.512,65.308
-0.568,-0.299,1.019,-20.569,-7.385,61.035
-0.556,-0.354,0.973,-16.052,-4.517,57.373
-0.510,-0.429,0.887,-15.625,-3.052,55.847
-0.470,-0.448,0.873,-12.695,-3.723,57.129
-0.406,-0.466,0.891,-8.606,-6.592,59.143
-0.326,-0.467,0.985,-0.183,-9.827,61.096
-0.301,-0.416,1.127,-0.549,-10.498,63.049
-0.242,-0.358,1.184,-0.366,-5.859,64.026
-0.176,-0.324,1.240,1.770,0.793,61.279
-0.166,-0.302,1.236,4.272,10.071,56.519
-0.148,-0.318,1.025,13.000,21.851,49.805
-0.101,-0.381,0.869,18.311,27.649,42.542
-0.010,-0.387,0.799,13.916,27.039,40.100
0.111,-0.444,0.819,5.859,24.780,37.781
0.194,-0.527,0.849,-0.183,23.437,35.156
0.257,-0.520,0.807,-1.221,24.048,36.011
0.323,-0.506,0.791,0.244,22.522,37.354
0.395,-0.548,0.830,3.174,18.799,37.170
0.453,-0.546,0.882,8.606,15.259,38.391
0.509,-0.452,0.948,9.155,12.207,42.603
0.607,-0.279,1.030,9.399,11.475,43.579
0.746,-0.064,1.216,0.732,12.451,38.208
0.859,-0.122,1.338,-12.146,20.081,21.606
0.932,-0.256,1.373,-19.043,34.119,5.676
0.947,-0.290,1.323,-22.705,49.255,-2.014
0.949,-0.368,1.241,-21.423,62.805,-7.507
0.950,-0.456,1.165,-13.000,72.205,-11.108
0.928,-0.436,0.987,-3.418,79.956,-8.301
0.905,-0.296,0.808,7.507,82.397,-2.197
0.914,-0.161,0.586,19.348,78.308,0.549
0.968,-0.088,0.522,29.358,66.772,0.793
1.012,0.015,0.442,32.898,55.664,0.916
1.035,0.134,0.411,33.081,45.532,0.916
1.036,0.254,0.438,25.696,36.133,-1.038
0.982,0.249,0.456,14.587,29.480,-6.897
0.875,0.174,0.449,3.174,24.353,-14.893
0.750,0.046,0.493,-8.240,16.235,-22.095
0.622,-0.099,0.549,-15.625,7.080,-26.978
0.504,-0.230,0.633,-17.883,-1.099,-29.114
0.403,-0.319,0.699,-14.832,-9.399,-28.625
0.310,-0.388,0.776,-12.390,-17.395,-26.306
0.236,-0.474,0.872,-12.207,-23.254,-24.048
0.177,-0.552,0.964,-14.465,-26.367,-20.630
0.135,-0.583,1.071,-16.418,-26.978,-16.235
0.101,-0.637,1.158,-17.090,-24.902,-12.695
0.057,-0.651,1.182,-16.357,-19.897,-8.057
0.019,-0.666,1.172,-14.832,-14.282,-3.296
-0.006,-0.633,1.122,-11.047,-9.949,2.136
-0.011,-0.604,1.111,-6.042,-7.874,7.263
-0.005,-0.540,1.088,-0.366,-7.141,12.329
0.015,-0.411,1.089,3.967,-6.104,17.212

-1.397,-0.819,1.604,-56.519,-99.609,-122.986
-1.074,-1.053,2.000,-40.588,-93.567,-106.750
-0.829,-1.216,2.011,3.418,-70.801,-86.975
-0.718,-1.335,1.685,60.547,-41.077,-67.566
-0.716,-1.300,1.292,113.342,-19.409,-43.518
-0.766,-1.062,0.930,147.217,-10.681,-16.602
-0.782,-0.749,0.646,162.781,-14.832,8.240
-0.736,-0.461,0.672,148.437,-30.273,28.442
-0.634,-0.091,0.969,111.938,-45.044,45.593
-0.525,0.114,1.178,69.397,-46.875,53.467
-0.439,0.136,1.310,30.334,-38.391,53.101
-0.385,0.098,1.371,-2.319,-24.475,51.331
-0.375,0.113,1.265,-23.804,-7.751,51.270
-0.442,0.089,1.169,-35.095,4.517,49.622
-0.477,0.079,1.025,-39.307,10.498,48.889
-0.545,0.123,0.882,-43.518,10.010,48.889
-0.566,0.074,0.883,-47.913,4.211,45.898
-0.615,0.017,0.813,-39.856,0.122,43.579
-0.636,0.008,0.793,-30.945,-6.409,43.030
-0.657,-0.055,0.767,-28.809,-16.418,41.748
-0.673,-0.100,0.810,-24.902,-26.001,42.542
-0.637,-0.208,1.008,-17.883,-36.255,43.335
-0.602,-0.265,1.167,-9.216,-40.039,46.265
-0.569,-0.104,1.181,-0.305,-37.231,53.345
-0.527,0.010,1.143,6.836,-31.250,54.626
-0.519,0.078,1.083,6.470,-24.414,50.903
-0.525,0.065,0.973,-2.747,-16.052,45.898
-0.504,-0.047,0.927,-16.785,-11.475,40.833
-0.506,-0.127,0.938,-36.255,-8.484,39.368
-0.515,-0.227,0.975,-50.781,-6.287,40.344
-0.535,-0.311,1.019,-53.406,-3.845,41.870
-0.538,-0.448,0.951,-39.185,-2.197,42.969
-0.503,-0.641,0.905,-15.503,-4.639,44.861
-0.465,-0.708,0.932,8.911,-10.620,52.734
-0.425,-0.532,0.935,28.748,-14.282,66.040
-0.385,-0.236,0.951,39.490,-15.808,75.745
-0.346,-0.074,1.005,37.231,-14.587,74.890
-0.324,-0.128,1.048,26.245,-8.606,66.528
-0.316,-0.244,1.049,11.292,0.916,58.960
-0.292,-0.333,0.972,-2.625,10.925,54.810
-0.273,-0.414,0.868,-8.667,17.761,51.514
-0.244,-0.504,0.761,-7.080,19.775,49.255
-0.197,-0.579,0.718,-3.540,16.724,49.194
-0.156,-0.508,0.739,-2.747,12.390,52.795
-0.099,-0.391,0.838,-5.188,7.690,56.396
-0.056,-0.322,0.904,-6.897,5.432,55.176
-0.020,-0.261,0.972,-6.348,4.761,51.941
0.024,-0.222,1.044,-4.333,5.127,47.668
0.049,-0.166,1.106,2.014,8.606,41.931
0.080,-0.128,1.063,8.240,15.137,34.363
0.108,-0.157,1.081,6.592,19.470,26.489
0.126,-0.172,1.170,-0.549,23.987,20.325
0.144,-0.215,1.244,-3.540,29.785,13.611
0.178,-0.286,1.227,0.549,37.964,6.165
0.215,-0.339,1.151,7.507,46.753,0.793
0.242,-0.306,1.114,10.986,52.979,-0.610
0.272,-0.283,1.052,13.489,58.472,-3.174
0.325,-0.283,1.027,17.334,62.927,-7.874
0.417,-0.182,1.033,23.621,66.528,-13.123
0.513,-0.175,0.927,25.696,73.547,-21.179
0.593,-0.229,0.849,18.677,79.102,-29.297
0.632,-0.358,0.706,11.658,83.557,-34.607
0.698,-0.488,0.611,9.399,82.092,-34.851
0.794,-0.545,0.576,13.184,74.890,-31.433
0.939,-0.459,0.563,27.344,65.186,-24.719
1.073,-0.264,0.559,46.875,55.298,-17.151
1.144,0.079,0.478,62.073,48.706,-11.169
1.169,0.359,0.391,66.284,42.542,-12.939
1.140,0.416,0.309,53.711,35.706,-24.353
1.104,0.338,0.313,30.884,27.710,-38.452
0.996,0.170,0.398,3.113,18.921,-51.086
0.849,-0.106,0.485,-18.616,10.803,-61.890
0.682,-0.448,0.646,-27.893,1.221,-68.848
0.523,-0.772,0.797,-27.893,-6.531,-67.871
0.409,-1.012,0.973,-23.682,-13.367,-59.204
0.329,-1.132,1.146,-17.822,-17.090,-46.387
0.265,-1.146,1.220,-11.475,-15.930,-32.959
0.249,-1.060,1.298,-7.935,-13.306,-19.470
0.239,-0.928,1.363,-7.446,-8.240,-9.216
0.206,-0.861,1.338,-9.827,-0.610,-2.686
0.184,-0.844,1.295,-13.367,6.470,2.075
0.190,-0.818,1.273,-15.259,11.536,8.850
0.199,-0.718,1.216,-10.315,15.320,17.029
0.215,-0.584,1.135,1.587,17.700,23.743
0.239,-0.455,1.054,12.878,18.250,28.076
0.266,-0.279,0.994,18.677,17.822,31.494
0.283,-0.071,0.944,18.066,17.273,31.555
0.279,-0.008,0.843,11.475,17.822,25.696
0.255,-0.069,0.803,0.732,17.456,17.456
0.215,-0.193,0.801,-10.620,15.686,11.475
0.169,-0.312,0.786,-15.625,13.489,8.362
0.126,-0.424,0.773,-14.160,10.437,7.568
0.083,-0.438,0.751,-9.521,6.165,9.949
0.052,-0.458,0.741,-4.333,1.831,12.573
0.038,-0.450,0.770,-0.977,-2.930,14.893
0.039,-0.394,0.799,0.305,-6.592,17.151
0.052,-0.348,0.829,-0.183,-8.911,17.517
0.061,-0.340,0.858,-4.272,-9.338,16.296
0.060,-0.332,0.865,-8.240,-9.033,15.320
0.063,-0.319,0.860,-9.155,-9.094,14.709
0.078,-0.305,0.863,-7.080,-10.193,14.160
0.094,-0.275,0.906,-3.784,-12.024,14.160
0.099,-0.225,0.924,0.305,-12.756,13.977
0.104,-0.162,0.962,3.357,-12.451,12.573
0.107,-0.122,0.985,2.808,-10.986,9.277
0.106,-0.143,1.002,-1.648,-8.301,4.272
0.092,-0.206,0.995,-7.202,-4.761,-0.061
0.074,-0.290,0.972,-10.254,-1.892,-2.930
0.062,-0.342,0.957,-10.071,-0.793,-3.845
0.055,-0.377,0.931,-6.470,-0.671,-3.357
0.056,-0.379,0.939,-2.686,-1.587,-1.831
0.061,-0.394,0.955,0.305,-2.502,-0.488
0.067,-0.395,0.950,3.479,-2.075,0.488
0.076,-0.363,0.928,6.531,-1.648,1.343
0.098,-0.330,0.912,7.629,-1.282,1.465
0.112,-0.334,0.892,6.287,-0.916,0.610
0.120,-0.312,0.872,4.333,-0.854,0.366
0.121,-0.301,0.854,3.784,-1.343,-0.061
0.124,-0.328,0.841,3.906,-2.380,-0.854

-2.504,0.605,0.022,-22.278,-20.935,-157.715
-2.718,0.570,0.094,-30.945,-49.316,-166.016
-2.569,0.009,0.784,-71.228,-92.346,-177.673
-2.164,-0.744,1.679,-109.985,-121.887,-178.467
-1.617,-1.252,2.404,-118.530,-126.526,-159.424
-1.130,-1.504,2.702,-67.383,-103.882,-135.742
-0.849,-1.868,2.335,22.583,-59.387,-115.479
-0.846,-2.109,1.649,110.291,-14.221,-86.792
-0.905,-1.838,0.996,167.053,7.935,-37.659
-0.933,-1.248,0.687,177.551,7.935,12.695
-0.867,-0.663,0.691,155.029,-6.714,50.781
-0.718,-0.175,1.039,116.699,-22.156,74.402
-0.596,0.195,1.258,81.665,-23.804,85.754
-0.541,0.404,1.194,57.861,-10.254,84.473
-0.519,0.471,1.004,40.466,2.563,76.965
-0.503,0.481,0.765,27.283,11.597,69.031
-0.515,0.470,0.550,10.010,12.878,63.232
-0.520,0.502,0.500,-9.033,5.554,58.716
-0.527,0.475,0.486,-22.583,-5.981,52.063
-0.520,0.289,0.564,-29.297,-18.982,42.175
-0.521,0.138,0.621,-29.541,-30.823,36.621
-0.500,0.034,0.818,-32.043,-41.870,36.743
-0.501,-0.039,1.043,-39.917,-48.401,40.588
-0.556,-0.031,1.203,-34.424,-48.645,46.387
-0.575,-0.090,1.323,-11.902,-46.509,47.974
-0.578,-0.099,1.422,4.822,-45.898,48.706
-0.538,-0.068,1.452,22.339,-40.161,48.706
-0.507,0.004,1.436,31.616,-30.212,49.561
-0.506,0.071,1.284,29.602,-15.625,49.561
-0.534,0.163,1.118,10.864,-2.747,48.035
-0.575,0.102,0.959,-14.954,7.385,42.603
-0.617,-0.122,0.939,-41.077,12.329,36.011
-0.672,-0.412,0.985,-56.641,15.137,33.386
-0.739,-0.654,0.943,-56.152,19.226,38.086
-0.787,-0.723,0.832,-38.147,20.813,48.828
-0.798,-0.781,0.735,-12.451,16.541,60.547
-0.769,-0.725,0.690,8.911,9.338,73.730
-0.693,-0.565,0.693,24.109,2.014,87.585
-0.611,-0.417,0.793,27.283,-3.235,96.802
-0.570,-0.237,0.798,18.860,-2.136,101.013
-0.580,-0.045,0.794,5.005,-0.183,101.074
-0.573,-0.152,0.811,-11.353,1.648,91.980
-0.529,-0.347,0.903,-25.330,2.075,83.984
-0.487,-0.424,1.006,-32.837,3.601,84.167
-0.413,-0.427,1.066,-30.762,6.287,87.158
-0.328,-0.370,1.070,-19.165,10.254,88.623
-0.267,-0.240,1.099,-5.737,13.367,89.294
-0.235,-0.113,1.059,3.723,17.639,87.341
-0.197,-0.001,0.978,9.949,22.278,81.055
-0.096,0.020,0.904,9.766,24.414,71.106
0.047,0.031,0.910,4.333,24.292,61.218
0.153,0.059,0.996,-5.371,24.109,52.612
0.195,0.008,1.036,-13.611,27.893,42.603
0.207,-0.083,1.001,-13.916,33.569,33.997
0.190,-0.206,1.013,-11.963,36.255,28.137
0.173,-0.244,1.014,-6.592,36.804,26.672
0.223,-0.127,0.935,8.911,36.133,26.794
0.328,0.012,0.994,24.963,29.236,24.719
0.469,0.156,1.120,33.630,23.926,19.165
0.611,0.231,1.223,31.494,25.879,10.315
0.722,0.205,1.250,26.733,33.997,-0.854
0.845,0.072,1.164,23.376,46.143,-11.475
0.967,0.085,1.069,21.973,57.129,-20.142
1.055,0.161,0.871,27.344,67.627,-29.114
1.144,0.086,0.646,37.292,74.524,-42.480
1.136,0.027,0.442,51.514,75.134,-51.086
1.081,-0.048,0.201,54.260,72.266,-52.551
1.036,-0.033,0.133,47.668,58.838,-51.392
1.050,-0.010,0.173,41.931,39.795,-50.171
1.064,-0.005,0.341,36.804,24.780,-55.298
1.016,-0.120,0.403,28.564,15.686,-63.538
0.915,-0.218,0.492,15.503,11.047,-69.153
0.760,-0.414,0.516,-0.549,6.958,-73.730
0.615,-0.670,0.587,-12.390,1.282,-75.989
0.480,-0.869,0.709,-20.386,-7.202,-71.777
0.390,-1.033,0.852,-20.142,-16.602,-61.462
0.358,-1.111,1.046,-18.311,-24.536,-48.279
0.333,-0.988,1.278,-13.245,-28.381,-32.104
0.302,-0.871,1.342,-4.517,-24.292,-20.142
0.280,-0.765,1.402,-2.136,-18.616,-12.817
0.274,-0.705,1.432,-2.319,-11.536,-8.301
0.259,-0.699,1.409,-2.930,-2.563,-5.981
0.224,-0.708,1.359,-5.859,4.883,-2.563
0.190,-0.700,1.231,-4.395,11.230,2.319
0.175,-0.571,1.140,0.488,12.939,9.094
0.179,-0.485,1.067,4.639,12.207,13.916
0.189,-0.362,1.029,7.996,10.864,16.174
0.198,-0.252,0.978,8.667,10.376,16.907
0.195,-0.242,0.929,5.432,10.864,14.160
0.189,-0.289,0.932,-1.709,10.315,11.230
0.164,-0.331,0.915,-7.690,10.559,10.315
0.132,-0.368,0.865,-7.324,10.071,10.498
0.097,-0.372,0.798,-4.944,8.545,11.475
0.076,-0.363,0.799,-4.395,4.822,13.000
0.061,-0.366,0.818,-3.967,0.732,13.916
0.056,-0.321,0.850,-1.892,-1.953,14.832
0.052,-0.281,0.856,-0.488,-3.113,14.282
0.053,-0.247,0.857,-2.197,-3.296,12.146
0.051,-0.273,0.880,-7.263,-3.235,8.972
0.040,-0.300,0.888,-10.986,-2.686,6.653
0.041,-0.347,0.882,-11.719,-2.625,5.859
0.020,-0.346,0.886,-7.568,-3.418,7.629
-0.019,-0.342,0.809,-1.221,-4.517,10.010
-0.021,-0.350,0.837,2.625,-8.179,11.414
0.015,-0.320,0.916,4.761,-12.268,12.634
0.058,-0.242,0.981,6.775,-12.512,13.123
0.083,-0.192,1.005,4.944,-9.399,11.414
0.070,-0.193,0.981,0.916,-4.456,8.118
0.032,-0.275,0.907,-1.831,-1.160,4.700
0.007,-0.319,0.836,-1.648,-0.854,3.479
0.026,-0.274,0.878,-2.014,-3.906,3.784
0.057,-0.276,0.974,-1.709,-6.958,2.319
0.061,-0.342,0.993,1.465,-6.653,0.305
0.060,-0.321,0.998,6.226,-5.249,1.465
0.061,-0.255,0.981,11.292,-3.784,2.563
0.057,-0.199,0.913,14.160,-2.014,1.526
0.062,-0.147,0.901,10.498,-1.526,-1.160
0.078,-0.182,0.971,0.854,-2.014,-6.165
0.081,-0.312,1.007,-6.226,-0.854,-12.085

0.647,-0.750,1.198,-6.897,8.606,32.898
0.708,-0.744,1.117,-1.465,10.864,41.626
0.772,-0.682,1.074,2.014,10.315,50.598
0.850,-0.639,0.982,5.920,9.277,58.228
0.922,-0.551,0.918,10.376,7.080,65.002
0.978,-0.439,0.803,12.695,3.967,70.190
1.045,-0.274,0.806,9.155,-2.319,73.914
1.112,-0.081,0.795,6.531,-6.714,73.425
1.173,0.030,0.782,2.014,-10.254,67.688
1.224,0.108,0.787,-8.423,-12.634,58.105
1.251,0.112,0.774,-21.912,-15.198,47.607
1.237,-0.009,0.740,-31.677,-16.663,35.706
1.205,-0.100,0.747,-38.330,-20.264,25.513
1.148,-0.120,0.810,-40.466,-24.597,19.409
1.094,-0.116,0.858,-37.964,-27.344,12.634
1.040,-0.092,0.883,-33.691,-27.893,4.822
0.985,-0.035,0.867,-29.297,-26.672,-2.869
0.888,0.059,0.756,-23.132,-23.621,-11.169
0.780,0.145,0.621,-18.127,-22.034,-22.156
0.679,0.212,0.569,-15.259,-23.499,-35.583
0.568,0.234,0.528,-18.433,-23.865,-50.232
0.455,0.212,0.523,-27.161,-23.682,-65.430
0.344,0.154,0.532,-33.569,-22.766,-79.346
0.254,0.038,0.647,-40.222,-20.935,-91.919
0.170,-0.093,0.781,-49.011,-15.137,-99.915
0.047,-0.113,0.904,-53.223,-3.784,-103.149
-0.185,0.031,0.863,-47.363,13.184,-104.858
-0.466,0.208,0.473,-30.884,30.090,-108.154
-0.840,0.298,-0.016,-17.944,34.363,-115.479
-1.077,0.293,-0.439,-12.695,19.531,-121.521
-1.229,0.233,-0.377,-26.855,-11.780,-125.854
-1.356,0.210,-0.043,-50.232,-45.166,-126.404
-1.459,0.165,0.343,-58.533,-67.810,-125.244
-1.555,0.084,0.639,-53.955,-78.125,-123.962
-1.642,0.077,0.848,-47.302,-78.979,-119.507
-1.682,0.081,1.109,-45.166,-78.003,-114.624
-1.723,-0.008,1.422,-49.011,-73.975,-110.901
-1.740,0.058,1.504,-52.063,-65.002,-103.943
-1.724,0.062,1.637,-50.415,-62.134,-100.281
-1.528,-0.309,1.850,-44.983,-63.904,-105.713
-1.242,-0.787,2.019,-21.057,-61.646,-105.469
-1.010,-1.047,2.001,19.531,-48.706,-89.355
-0.883,-1.078,1.712,70.374,-29.114,-64.819
-0.834,-1.084,1.303,116.760,-12.939,-39.673
-0.827,-0.908,1.010,146.240,-8.240,-12.024
-0.788,-0.646,0.873,154.419,-12.268,15.076
-0.777,-0.294,0.936,140.198,-20.447,38.574
-0.732,0.041,1.009,117.126,-25.940,53.955
-0.682,0.185,1.173,88.440,-28.259,59.326
-0.638,0.204,1.214,55.542,-23.804,59.631
-0.605,0.208,1.299,18.494,-15.625,60.059
-0.637,0.192,1.192,-5.493,-4.028,61.096
-0.642,0.101,0.995,-9.583,5.737,58.960
-0.705,0.099,0.847,-12.085,5.737,59.631
-0.754,0.087,0.673,-10.010,1.587,59.021
-0.786,-0.005,0.649,-6.531,-8.667,57.129
-0.804,-0.068,0.687,-2.625,-19.836,57.800
-0.795,-0.094,0.756,-1.648,-28.320,61.951
-0.766,-0.131,0.902,-4.517,-33.508,66.284
-0.739,-0.099,1.082,-6.775,-33.508,71.716
-0.726,-0.025,1.121,-3.540,-26.733,75.684
-0.714,0.001,0.996,2.136,-16.724,75.195
-0.690,0.135,0.880,2.747,-10.864,75.012
-0.626,0.191,0.841,-4.395,-8.972,71.472
-0.576,0.177,0.899,-14.648,-7.996,65.613
-0.547,0.068,0.904,-25.940,-4.395,58.594
-0.532,-0.075,0.900,-33.447,-0.610,52.551
-0.500,-0.222,0.906,-35.278,1.892,49.194
-0.470,-0.350,0.943,-28.687,3.113,48.828
-0.455,-0.395,0.952,-12.146,2.686,51.392
-0.467,-0.426,0.840,12.329,3.479,53.223
-0.444,-0.471,0.703,34.790,2.441,55.054
-0.362,-0.431,0.635,47.852,-2.563,59.265
-0.217,-0.394,0.688,46.692,-8.545,62.378
-0.105,-0.330,0.817,38.025,-12.390,63.049
-0.051,-0.305,0.936,29.419,-10.498,59.998
-0.037,-0.311,1.045,17.456,-4.517,53.650
-0.044,-0.366,1.140,3.906,3.662,46.143
-0.070,-0.458,1.173,-4.272,13.794,38.025
-0.097,-0.628,1.048,-1.526,25.330,30.579
-0.084,-0.740,0.916,2.991,32.898,27.771
-0.031,-0.814,0.762,11.108,34.607,29.968
0.044,-0.740,0.707,18.066,32.715,36.255
0.110,-0.549,0.712,22.034,28.442,43.762
0.190,-0.389,0.778,19.104,25.574,46.631
0.256,-0.331,0.853,10.071,24.963,44.189
0.295,-0.271,0.962,-1.831,27.466,41.016
0.302,-0.197,1.002,-7.874,33.325,35.339
0.294,-0.205,1.038,-10.315,39.001,26.794
0.268,-0.309,1.094,-8.057,42.603,16.479
0.276,-0.356,1.114,-5.188,45.471,11.414
0.326,-0.386,1.172,-2.441,46.448,7.874
0.375,-0.363,1.283,2.808,47.607,5.493
0.425,-0.400,1.302,10.925,52.917,2.930
0.470,-0.430,1.323,18.494,60.059,3.052
0.569,-0.291,1.299,24.048,67.383,8.545
0.651,0.009,1.298,26.245,74.097,12.024
0.763,0.081,1.234,32.288,81.604,4.333
0.845,0.159,1.111,47.302,88.501,-3.540
0.938,0.336,0.879,63.354,93.872,-6.836
0.983,0.569,0.579,70.862,95.886,-10.193
1.020,0.748,0.358,64.148,90.820,-18.188
1.029,0.847,0.264,44.983,79.651,-32.715
0.972,0.758,0.253,22.156,66.711,-53.223
0.859,0.445,0.319,4.272,53.162,-76.965
0.709,0.001,0.300,-6.165,42.603,-95.337
0.586,-0.324,0.374,-15.564,30.518,-102.112
0.483,-0.666,0.473,-22.217,17.273,-103.149
0.393,-0.997,0.581,-22.461,6.165,-98.816
0.338,-1.211,0.685,-20.813,-2.319,-88.440
0.308,-1.304,0.811,-19.470,-10.315,-73.059
0.265,-1.346,0.932,-18.433,-15.076,-57.129
0.262,-1.276,1.026,-13.977,-17.029,-40.649
0.279,-1.082,1.125,-8.545,-16.968,-25.757
0.307,-0.954,1.180,-5.432,-14.160,-15.564
0.313,-0.828,1.187,-5.066,-9.644,-7.446
0.320,-0.722,1.139,-3.540,-4.822,-0.488
0.316,-0.595,1.110,-1.770,-1.831,5.249
0.320,-0.462,1.063,3.967,-0.366,10.071

0.980,-0.389,1.093,-17.212,6.348,47.974
0.985,-0.379,1.061,-21.667,7.812,46.509
0.996,-0.336,0.995,-24.170,8.667,44.983
1.020,-0.300,0.942,-25.208,7.324,41.504
1.051,-0.320,0.886,-24.658,4.883,36.133
1.064,-0.304,0.846,-25.391,1.648,32.898
1.066,-0.248,0.796,-24.658,-1.953,31.677
1.067,-0.164,0.808,-18.616,-8.301,28.503
1.045,-0.093,0.773,-9.338,-14.709,23.193
1.063,0.084,0.827,-1.404,-21.362,16.785
1.092,0.270,0.823,6.165,-25.391,5.554
1.086,0.483,0.745,9.277,-25.696,-9.949
1.025,0.595,0.728,0.366,-25.085,-30.334
0.936,0.628,0.754,-18.982,-22.583,-53.162
0.818,0.516,0.837,-42.969,-18.311,-76.111
0.672,0.486,0.782,-56.946,-10.254,-94.238
0.523,0.520,0.693,-55.176,-3.296,-107.544
0.349,0.515,0.604,-42.358,2.075,-121.094
0.114,0.573,0.424,-31.128,9.827,-130.188
-0.260,0.668,0.205,-23.315,17.883,-134.155
-0.729,0.888,-0.221,-22.400,20.325,-134.705
-1.246,1.216,-0.561,-25.208,10.498,-139.771
-1.788,1.394,-0.588,-36.499,-15.259,-155.762
-2.360,1.309,-0.433,-57.007,-42.297,-182.617
-2.890,1.145,-0.151,-83.862,-68.481,-206.787
-3.317,0.963,0.285,-126.282,-92.834,-221.741
-3.409,0.267,0.922,-172.058,-119.324,-235.413
-3.206,-0.497,1.911,-225.647,-146.118,-232.605
-2.591,-1.184,2.983,-249.390,-163.635,-212.341
-1.719,-1.829,3.947,-186.707,-157.654,-190.979
-0.973,-2.462,3.706,-31.799,-103.394,-169.739
-0.797,-2.881,2.542,163.818,-26.245,-138.916
-0.788,-2.790,1.080,323.975,26.550,-84.106
-0.925,-2.224,0.034,382.141,38.879,-14.465
-0.988,-1.148,-0.473,340.332,18.005,59.875
-0.883,-0.105,-0.049,230.835,-21.973,109.497
-0.756,0.693,0.772,106.628,-52.734,128.540
-0.591,0.916,1.310,12.146,-51.880,118.958
-0.445,0.743,1.546,-43.823,-31.860,94.177
-0.363,0.501,1.271,-57.800,-2.441,71.472
-0.383,0.454,0.804,-51.392,18.921,58.838
-0.433,0.435,0.375,-44.983,23.743,50.354
-0.458,0.388,0.162,-46.265,12.268,43.762
-0.513,0.359,0.184,-59.631,-7.812,40.527
-0.500,0.263,0.410,-72.693,-30.518,37.170
-0.453,0.188,0.752,-82.642,-47.424,33.569
-0.410,0.089,1.024,-85.144,-53.528,30.151
-0.373,-0.072,1.209,-76.904,-51.270,28.137
-0.414,-0.092,1.310,-58.105,-45.654,32.227
-0.442,-0.123,1.247,-38.025,-36.804,38.269
-0.456,-0.079,1.238,-6.104,-34.607,42.969
-0.456,0.059,1.202,15.442,-38.513,47.241
-0.401,0.156,1.278,28.076,-42.175,45.776
-0.343,0.222,1.329,32.349,-41.382,42.236
-0.307,0.152,1.318,29.724,-31.677,34.851
-0.291,0.031,1.269,22.278,-20.081,28.687
-0.307,-0.165,1.176,14.160,-8.484,23.865
-0.319,-0.293,1.114,8.057,-0.366,23.499
-0.319,-0.438,1.069,9.766,5.127,25.330
-0.342,-0.507,1.004,17.456,10.559,29.785
-0.390,-0.485,0.852,26.978,14.587,36.194
-0.433,-0.512,0.669,32.837,15.076,40.100
-0.462,-0.553,0.596,33.020,9.766,45.715
-0.464,-0.521,0.580,26.428,2.563,53.528
-0.419,-0.457,0.604,17.883,-3.906,60.608
-0.342,-0.477,0.717,9.094,-9.827,63.171
-0.290,-0.437,0.854,2.441,-12.390,66.345
-0.263,-0.312,0.936,-3.296,-10.437,69.275
-0.268,-0.247,0.954,-8.179,-5.310,67.261
-0.288,-0.271,0.989,-11.780,-0.671,61.707
-0.325,-0.381,0.965,-12.939,4.272,56.458
-0.355,-0.502,0.852,-10.925,9.155,54.565
-0.365,-0.517,0.772,-7.324,8.667,58.533
-0.328,-0.506,0.786,-5.859,3.784,64.209
-0.274,-0.471,0.843,-3.723,-1.587,69.092
-0.202,-0.334,0.951,-2.075,-4.639,73.059
-0.149,-0.143,1.069,-3.845,-4.761,74.341
-0.097,-0.027,1.138,-5.981,-0.305,69.397
-0.071,-0.033,1.199,-12.939,6.226,60.852
-0.081,-0.129,1.277,-22.339,15.320,52.063
-0.110,-0.243,1.251,-25.208,25.818,46.265
-0.137,-0.292,1.083,-16.724,35.889,42.908
-0.134,-0.264,0.946,-5.127,38.330,41.687
-0.087,-0.258,0.857,1.709,36.194,39.063
-0.021,-0.227,0.872,1.831,31.860,36.804
0.006,-0.215,0.878,0.244,29.114,34.302
0.019,-0.238,0.927,-0.977,27.405,31.555
0.017,-0.243,1.000,-2.441,26.917,29.602
0.015,-0.192,1.000,0.366,29.419,28.259
0.025,-0.168,0.967,6.470,31.616,24.109
0.051,-0.105,0.946,7.629,31.677,19.409
0.091,-0.168,1.010,4.517,31.067,12.329
0.125,-0.230,1.033,0.183,31.555,6.775
0.169,-0.302,1.086,-1.221,32.349,4.028
0.238,-0.346,1.127,0.183,34.058,2.136
0.316,-0.306,1.120,3.540,38.025,2.319
0.362,-0.104,1.135,5.737,42.603,3.601
0.414,-0.055,1.085,5.676,48.706,-0.305
0.410,-0.080,1.062,-1.831,54.321,-7.263
0.394,-0.067,0.999,-5.920,57.556,-11.719
0.407,-0.139,0.958,-3.357,56.458,-16.541
0.435,-0.269,0.946,5.981,53.040,-20.691
0.491,-0.258,0.978,15.991,47.974,-16.296
0.543,-0.226,0.999,27.527,44.434,-9.827
0.590,-0.149,0.927,42.114,43.091,-3.784
0.609,-0.062,0.769,56.274,41.687,2.014
0.635,0.199,0.600,60.486,38.330,7.568
0.694,0.414,0.587,56.030,30.090,5.615
0.714,0.474,0.522,41.931,24.963,-4.456
0.716,0.560,0.559,17.273,19.714,-19.348
0.644,0.230,0.627,-1.831,14.160,-41.748
0.521,-0.265,0.637,-13.672,12.024,-59.265
0.416,-0.552,0.695,-17.456,5.554,-59.204
0.346,-0.526,0.752,-14.038,-1.526,-50.415
0.347,-0.558,0.816,0.305,-9.583,-44.983
0.330,-0.605,0.887,12.268,-14.099,-43.152
0.311,-0.547,0.915,17.639,-15.686,-38.025
0.300,-0.549,0.951,15.015,-16.052,-34.607
0.297,-0.610,1.002,8.118,-15.259,-32.776

0.761,-0.571,1.243,-7.446,-7.263,43.762
0.803,-0.439,1.278,-4.028,-4.761,49.866
0.837,-0.339,1.209,-0.061,1.160,52.856
0.892,-0.262,1.184,1.099,3.540,52.368
0.927,-0.196,1.116,-4.150,4.272,52.673
0.952,-0.201,1.031,-5.127,5.798,49.194
0.955,-0.248,0.983,-5.188,3.418,43.640
0.977,-0.334,0.976,-1.892,-1.709,39.673
0.984,-0.399,0.916,1.465,-4.211,37.842
0.998,-0.467,0.955,2.380,-8.240,37.537
0.999,-0.436,0.937,5.188,-11.353,38.818
1.003,-0.395,0.873,9.460,-11.719,40.222
1.008,-0.346,0.879,6.042,-13.794,38.757
1.006,-0.277,0.860,2.014,-15.320,37.170
1.009,-0.231,0.843,-2.747,-15.930,33.264
1.013,-0.225,0.836,-5.066,-17.944,26.428
1.008,-0.136,0.848,-5.005,-20.447,19.836
0.997,-0.042,0.815,-3.113,-21.912,11.841
0.952,0.081,0.717,-0.793,-23.010,1.526
0.908,0.151,0.669,-2.380,-27.527,-10.864
0.887,0.250,0.769,-8.179,-34.607,-24.414
0.852,0.236,0.888,-13.672,-37.781,-40.405
0.759,0.169,0.933,-16.296,-33.752,-56.885
0.648,0.058,0.990,-15.503,-25.818,-70.618
0.506,0.035,1.041,-15.991,-14.404,-80.444
0.282,0.199,0.903,-15.381,3.540,-85.205
-0.060,0.523,0.623,-10.315,21.118,-91.370
-0.409,0.760,0.187,-3.479,30.029,-105.957
-0.806,0.962,-0.160,0.732,27.344,-127.441
-1.141,0.956,-0.340,-4.944,13.550,-151.611
-1.456,0.738,-0.252,-24.353,-6.592,-174.133
-1.745,0.495,-0.082,-45.593,-23.254,-185.913
-2.011,0.243,0.186,-70.129,-36.560,-187.561
-2.241,-0.005,0.382,-83.252,-44.739,-180.664
-2.442,0.162,0.569,-93.262,-52.612,-166.321
-2.495,0.324,0.862,-86.365,-65.857,-160.522
-2.406,-0.152,1.324,-77.881,-80.200,-172.302
-2.158,-0.781,1.762,-73.547,-84.595,-173.401
-1.761,-1.223,2.187,-57.312,-80.627,-153.381
-1.356,-1.489,2.282,-11.047,-61.829,-124.573
-1.024,-1.612,1.873,67.078,-30.640,-94.788
-0.919,-1.613,1.267,147.705,-4.456,-63.721
-0.861,-1.348,0.662,208.618,6.042,-28.381
-0.864,-0.899,0.255,231.995,0.183,6.897
-0.833,-0.388,0.198,208.008,-18.311,36.377
-0.770,0.135,0.535,151.794,-39.307,55.603
-0.690,0.462,0.981,84.229,-50.537,62.256
-0.597,0.601,1.367,23.132,-45.654,56.458
-0.493,0.464,1.540,-23.804,-28.625,42.969
-0.451,0.244,1.467,-48.157,-4.517,30.823
-0.449,0.084,1.240,-52.124,15.198,25.696
-0.500,0.065,0.907,-45.898,26.978,24.963
-0.564,0.038,0.738,-42.542,26.550,24.963
-0.673,0.027,0.553,-21.057,20.935,24.536
-0.621,-0.086,0.508,-11.292,6.836,22.522
-0.593,-0.072,0.730,-21.545,-9.888,25.269
-0.598,-0.070,0.857,-39.001,-16.479,29.358
-0.644,-0.049,0.966,-50.171,-18.188,32.043
-0.678,-0.128,1.061,-52.368,-19.348,31.616
-0.677,-0.308,1.229,-52.917,-19.226,30.151
-0.682,-0.362,1.343,-48.279,-15.442,34.973
-0.712,-0.305,1.353,-37.292,-7.385,43.274
-0.774,-0.261,1.287,-23.376,0.061,48.645
-0.814,-0.298,1.195,-8.362,5.920,50.598
-0.831,-0.289,1.096,7.324,9.521,53.101
-0.828,-0.279,0.976,15.930,12.207,55.969
-0.808,-0.339,0.911,14.771,13.123,57.739
-0.785,-0.375,0.870,8.240,13.733,61.096
-0.761,-0.455,0.850,3.967,14.282,64.880
-0.740,-0.546,0.864,8.423,13.428,68.909
-0.685,-0.601,0.838,19.958,12.024,74.341
-0.621,-0.616,0.817,36.072,10.681,79.956
-0.555,-0.521,0.821,45.166,8.301,87.219
-0.462,-0.370,0.816,46.753,6.897,92.834
-0.401,-0.234,0.821,39.551,7.629,95.581
-0.375,-0.189,0.882,23.804,8.362,93.262
-0.337,-0.303,0.873,12.329,11.841,87.463
-0.314,-0.398,0.903,5.432,15.381,83.130
-0.264,-0.531,0.771,10.010,19.531,81.238
-0.156,-0.579,0.780,13.550,19.287,83.313
-0.064,-0.597,0.743,21.179,17.578,87.524
-0.001,-0.553,0.753,19.531,16.235,94.421
0.043,-0.458,0.719,20.142,14.954,99.915
0.106,-0.361,0.736,19.836,13.489,101.440
0.158,-0.259,0.776,15.076,11.230,100.830
0.242,-0.250,0.702,9.277,13.367,97.778
0.301,-0.242,0.725,-1.343,12.207,96.497
0.369,-0.188,0.742,-19.592,11.414,96.130
0.469,-0.043,0.868,-32.471,8.057,93.872
0.525,0.068,1.016,-32.471,7.019,84.290
0.597,-0.008,1.062,-23.071,9.277,65.369
0.716,-0.085,1.052,-18.188,13.306,50.110
0.829,-0.040,1.157,-23.132,17.334,41.687
0.922,-0.019,1.171,-28.076,25.330,32.532
0.971,-0.000,1.143,-24.963,35.461,21.912
0.995,-0.130,1.164,-18.433,42.480,9.644
0.974,-0.206,1.096,-6.897,49.500,1.221
0.978,-0.090,1.006,14.771,52.856,-0.488
1.017,-0.060,0.916,40.344,51.453,-5.981
1.047,0.150,0.781,63.354,50.537,-12.451
1.090,0.257,0.780,72.510,45.227,-21.484
1.111,0.163,0.670,65.491,43.579,-34.851
1.083,0.133,0.708,42.969,40.161,-40.710
1.009,0.085,0.688,18.616,36.987,-43.274
0.895,-0.070,0.654,2.869,32.410,-47.852
0.805,-0.264,0.689,-4.944,23.437,-50.171
0.732,-0.446,0.703,-2.686,14.038,-47.363
0.664,-0.498,0.755,0.000,5.188,-38.696
0.619,-0.517,0.836,2.258,-2.502,-29.663
0.573,-0.466,0.902,1.953,-7.141,-22.583
0.516,-0.427,0.924,0.793,-9.644,-17.883
0.462,-0.351,0.915,-3.235,-9.521,-16.541
0.414,-0.432,0.967,-12.634,-10.559,-20.020
0.358,-0.548,1.018,-25.513,-9.216,-22.339
0.299,-0.616,1.115,-36.194,-7.202,-21.362
0.234,-0.679,1.133,-40.771,-3.479,-19.714
0.173,-0.779,1.142,-34.363,0.122,-17.761
0.112,-0.806,1.097,-24.902,3.113,-11.047
0.064,-0.752,1.039,-15.259,5.493,-2.441

-1.925,0.223,0.770,-52.979,-65.613,-144.653
-2.053,-0.010,0.763,-47.241,-69.885,-143.616
-2.023,-0.347,1.043,-43.457,-81.421,-140.076
-1.891,-0.520,1.403,-40.833,-90.210,-124.634
-1.671,-0.706,1.806,-27.161,-91.064,-106.873
-1.364,-0.897,2.112,7.385,-82.214,-91.125
-1.082,-1.212,2.132,65.613,-60.181,-75.562
-0.926,-1.249,1.737,133.362,-30.273,-50.720
-0.846,-1.139,1.266,186.340,-7.141,-21.545
-0.813,-0.928,0.860,212.158,2.502,6.226
-0.824,-0.542,0.594,213.135,2.869,33.752
-0.774,-0.158,0.488,188.293,-3.296,55.176
-0.729,0.200,0.668,137.329,-13.306,67.566
-0.675,0.440,0.861,81.909,-15.869,69.519
-0.606,0.503,1.055,29.724,-11.414,62.866
-0.559,0.415,1.141,-9.827,-0.671,52.856
-0.582,0.275,1.068,-35.095,13.245,45.349
-0.677,0.206,0.891,-45.410,23.071,42.297
-0.700,0.083,0.679,-37.964,23.437,39.246
-0.701,-0.055,0.549,-26.245,15.564,38.269
-0.677,-0.060,0.620,-15.564,1.892,42.358
-0.702,-0.003,0.655,-8.301,-6.104,47.485
-0.646,0.074,0.785,4.089,-11.475,51.270
-0.620,0.220,0.821,-8.179,-13.245,53.650
-0.650,0.321,0.879,-22.522,-10.742,52.124
-0.687,0.284,0.839,-32.776,-7.446,46.082
-0.707,0.166,0.790,-39.063,-6.470,39.185
-0.670,0.042,0.893,-43.213,-10.376,35.645
-0.607,-0.048,1.022,-40.771,-13.245,34.851
-0.564,-0.101,1.060,-29.358,-11.963,36.133
-0.523,-0.061,1.078,-13.794,-9.949,38.452
-0.471,-0.000,1.103,2.441,-8.728,39.001
-0.439,-0.006,1.067,13.672,-4.700,37.109
-0.426,0.003,1.005,17.883,0.061,35.156
-0.406,-0.060,1.042,15.869,2.502,33.142
-0.407,-0.114,1.055,13.367,5.432,31.372
-0.395,-0.204,1.053,18.127,9.033,29.663
-0.383,-0.283,1.051,26.550,11.902,28.320
-0.347,-0.313,1.015,36.804,14.954,29.114
-0.300,-0.378,1.006,44.373,17.029,29.358
-0.273,-0.368,1.005,45.227,18.921,31.067
-0.246,-0.312,1.005,41.870,22.705,32.471
-0.214,-0.316,0.919,37.903,27.100,29.663
-0.154,-0.334,0.877,31.372,29.114,25.635
-0.074,-0.369,0.889,24.170,28.015,22.339
-0.004,-0.404,0.953,18.677,27.039,19.714
0.073,-0.430,0.991,16.479,26.672,18.188
0.141,-0.519,1.035,14.465,27.100,15.625
0.217,-0.496,1.047,18.799,29.175,16.479
0.270,-0.466,1.050,22.461,30.518,17.944
0.329,-0.428,1.046,23.865,33.081,18.433
0.376,-0.353,1.021,24.719,35.828,19.531
0.392,-0.285,0.972,28.564,37.781,19.714
0.429,-0.224,0.899,33.264,37.476,16.418
0.507,-0.237,0.875,35.400,34.485,9.277
0.571,-0.242,0.903,35.889,30.334,2.136
0.617,-0.213,0.873,32.288,29.602,-2.502
0.665,-0.226,0.935,23.071,28.320,-7.629
0.665,-0.235,0.947,14.282,29.419,-11.963
0.625,-0.258,0.941,10.254,31.311,-16.174
0.563,-0.373,0.871,8.911,32.837,-20.508
0.497,-0.451,0.827,7.263,31.006,-20.691
0.408,-0.476,0.790,7.141,26.550,-17.578
0.364,-0.457,0.766,10.315,19.958,-15.320
0.388,-0.459,0.906,13.733,10.681,-15.991
0.385,-0.446,1.001,17.944,5.310,-17.883
0.396,-0.480,1.037,19.897,5.554,-20.508
0.388,-0.546,1.080,16.663,6.592,-21.912
0.354,-0.536,1.096,10.864,10.315,-19.836
0.299,-0.605,1.036,8.118,14.893,-18.494
0.240,-0.673,0.969,3.479,16.846,-15.686
0.214,-0.807,0.893,-0.366,16.907,-9.766
0.202,-0.844,0.936,-6.897,13.367,0.183
0.211,-0.797,0.979,-9.705,10.010,12.146
0.233,-0.795,1.032,-5.615,7.751,21.606
0.255,-0.777,1.014,5.493,9.644,29.175
0.277,-0.668,1.003,13.306,10.010,39.063
0.318,-0.502,0.937,22.339,12.146,46.204
0.350,-0.307,0.908,21.973,14.099,48.340
0.369,-0.218,0.853,19.226,15.991,44.983
0.393,-0.197,0.860,14.404,17.639,38.391
0.391,-0.265,0.869,7.019,18.677,33.020
0.382,-0.275,0.880,2.563,20.020,32.410
0.372,-0.284,0.867,5.371,20.081,33.569
0.374,-0.187,0.836,12.756,18.921,35.889
0.383,-0.030,0.807,20.081,16.418,36.316
0.380,0.102,0.746,24.414,13.977,32.776
0.389,0.200,0.693,23.376,10.742,26.550
0.378,0.193,0.702,11.902,6.348,17.273
0.357,0.107,0.771,-2.380,2.441,7.507
0.326,-0.021,0.834,-11.719,-0.305,-0.305
0.284,-0.121,0.876,-14.954,-1.526,-5.127
0.233,-0.217,0.872,-15.137,-2.502,-8.240
0.185,-0.309,0.868,-13.855,-3.784,-9.827
0.145,-0.398,0.881,-12.878,-5.920,-9.338
0.099,-0.495,0.879,-13.184,-7.751,-7.446
0.089,-0.585,0.906,-12.817,-10.071,-3.723
0.084,-0.592,0.952,-8.911,-11.230,0.183
0.105,-0.533,1.013,-6.775,-11.963,5.127
0.117,-0.492,1.052,-5.981,-10.376,8.301
0.120,-0.428,1.038,-6.531,-6.958,10.071
0.111,-0.395,1.021,-7.019,-4.028,10.803
0.093,-0.389,0.996,-6.653,-1.465,10.315
0.076,-0.380,0.983,-4.822,-0.793,10.498
0.075,-0.349,0.965,-2.197,-0.305,11.475
0.085,-0.312,0.967,1.038,-0.427,11.902
0.109,-0.206,0.954,2.930,-0.427,12.390
0.128,-0.155,0.943,1.770,-0.061,10.071
0.141,-0.117,0.933,0.427,0.183,6.409
0.156,-0.140,0.933,-1.343,0.488,2.625
0.144,-0.151,0.893,-2.380,1.160,0.061
0.143,-0.194,0.909,-3.723,0.244,-1.770
0.146,-0.187,0.921,-3.784,-0.244,-2.686
0.138,-0.201,0.931,-3.906,-0.427,-3.784
0.125,-0.228,0.917,-3.662,0.366,-4.883
0.104,-0.222,0.896,-4.089,0.305,-5.676
0.076,-0.293,0.845,-4.578,-0.183,-7.935
0.060,-0.363,0.841,-4.761,-2.075,-8.423
0.055,-0.405,0.880,-4.883,-5.249,-6.714

-2.521,0.641,-0.429,-69.763,-26.611,-182.922
-2.810,0.358,-0.367,-89.050,-61.707,-195.984
-2.914,0.041,0.236,-127.991,-109.741,-192.871
-2.655,-0.365,1.260,-173.279,-151.978,-177.795
-2.264,-0.656,2.366,-211.365,-174.316,-151.367
-1.685,-0.872,3.242,-195.740,-167.175,-123.962
-1.091,-1.204,3.708,-119.690,-130.249,-107.056
-0.732,-1.486,3.304,4.150,-63.477,-88.928
-0.791,-1.585,2.188,124.512,9.094,-61.707
-0.861,-1.314,1.223,204.895,49.561,-22.156
-0.945,-0.868,0.447,232.483,60.303,17.273
-0.955,-0.255,0.014,210.693,47.852,55.969
-0.845,0.424,0.202,157.349,18.250,82.092
-0.650,0.902,0.551,93.567,-4.333,89.661
-0.426,1.025,0.855,41.443,-12.024,78.125
-0.293,0.940,0.922,11.719,-5.981,59.204
-0.284,0.821,0.739,2.136,3.540,41.199
-0.329,0.741,0.534,0.549,7.751,27.344
-0.399,0.624,0.461,-2.991,1.343,16.174
-0.478,0.501,0.427,-7.996,-9.888,8.484
-0.478,0.317,0.577,-12.939,-26.306,3.113
-0.419,0.126,0.896,-17.212,-40.466,0.610
-0.350,0.017,1.105,-16.968,-43.152,3.174
-0.339,-0.021,1.190,-12.268,-37.292,8.545
-0.358,-0.040,1.200,-3.174,-29.541,14.282
-0.406,0.007,1.227,10.315,-24.536,20.264
-0.482,-0.008,1.130,20.447,-18.677,23.132
-0.516,-0.052,1.118,37.598,-16.296,24.109
-0.488,-0.058,1.182,41.504,-19.226,25.208
-0.446,-0.119,1.245,39.612,-18.982,25.940
-0.448,-0.121,1.238,35.278,-12.085,27.893
-0.478,-0.154,1.195,31.433,-2.502,30.396
-0.524,-0.203,1.123,25.940,6.104,31.372
-0.576,-0.264,1.041,20.081,13.611,31.921
-0.618,-0.372,0.969,17.944,19.287,32.227
-0.646,-0.509,0.854,21.912,23.865,34.790
-0.647,-0.564,0.818,22.400,24.353,41.931
-0.614,-0.546,0.820,24.902,22.827,50.964
-0.598,-0.507,0.791,29.663,22.156,59.265
-0.589,-0.414,0.726,32.715,22.217,66.162
-0.565,-0.342,0.693,32.715,20.569,68.970
-0.548,-0.325,0.729,28.870,18.005,69.763
-0.525,-0.268,0.808,21.057,15.686,71.777
-0.505,-0.228,0.866,12.817,15.137,72.266
-0.491,-0.282,0.877,8.057,16.296,69.702
-0.463,-0.311,0.884,5.615,18.005,67.810
-0.409,-0.336,0.916,6.287,18.799,67.078
-0.354,-0.308,0.923,6.531,21.240,67.078
-0.312,-0.269,0.880,6.775,24.475,66.467
-0.290,-0.271,0.807,5.249,27.161,64.209
-0.264,-0.261,0.776,1.831,27.405,62.683
-0.255,-0.253,0.824,-2.930,25.757,61.035
-0.213,-0.273,0.888,-7.385,23.560,58.167
-0.136,-0.243,0.995,-4.944,22.217,56.274
-0.143,-0.163,1.058,-3.784,23.743,52.795
-0.121,-0.173,1.059,-1.709,24.353,47.913
-0.071,-0.155,1.091,4.272,26.489,42.725
-0.044,-0.172,1.093,8.911,29.846,37.720
0.034,-0.143,1.098,9.033,33.325,32.471
0.116,-0.181,1.104,8.728,34.546,26.611
0.176,-0.202,1.137,7.446,37.903,22.949
0.224,-0.200,1.107,9.521,42.114,20.386
0.294,-0.246,1.020,15.930,46.204,16.846
0.383,-0.226,0.967,21.729,48.462,15.076
0.477,-0.148,0.909,23.071,48.889,14.160
0.550,0.016,0.899,21.973,48.645,11.841
0.613,0.017,0.931,18.555,47.668,3.357
0.653,-0.003,0.932,12.329,48.462,-5.371
0.681,-0.024,0.866,10.010,49.011,-13.184
0.713,0.012,0.851,12.878,46.509,-19.836
0.764,0.006,0.840,18.250,43.396,-26.672
0.805,0.011,0.895,17.517,39.978,-32.104
0.834,0.066,0.839,19.104,39.429,-34.912
0.883,0.137,0.867,23.193,36.377,-39.734
0.861,0.199,0.778,25.085,36.133,-45.654
0.839,0.227,0.717,23.132,35.583,-53.162
0.814,0.185,0.693,17.822,32.288,-62.195
0.784,0.056,0.675,6.287,29.907,-71.106
0.736,-0.075,0.760,-8.362,25.208,-78.552
0.654,-0.355,0.756,-13.672,22.400,-83.801
0.570,-0.576,0.690,-14.099,18.555,-83.191
0.543,-0.704,0.785,-11.108,10.498,-76.050
0.490,-0.728,0.715,0.366,4.395,-66.589
0.451,-0.709,0.751,8.667,-2.197,-56.335
0.417,-0.685,0.781,11.658,-8.484,-48.218
0.390,-0.641,0.868,4.944,-12.817,-41.504
0.379,-0.694,0.879,-2.014,-14.832,-36.377
0.348,-0.720,0.945,-7.019,-15.198,-31.372
0.308,-0.765,0.951,-10.620,-15.869,-25.146
0.288,-0.755,1.008,-9.827,-17.517,-16.541
0.271,-0.724,1.040,-6.042,-19.165,-6.836
0.256,-0.620,1.076,-2.014,-19.775,1.953
0.253,-0.495,1.097,2.258,-19.409,9.521
0.255,-0.336,1.130,4.089,-17.761,13.855
0.249,-0.196,1.138,2.014,-14.465,14.465
0.240,-0.112,1.108,-4.639,-9.338,11.292
0.220,-0.111,1.094,-15.076,-4.333,5.676
0.188,-0.203,1.095,-25.269,-0.916,-0.061
0.146,-0.332,1.092,-29.053,1.831,-3.113
0.107,-0.415,1.062,-26.306,4.272,-3.296
0.083,-0.431,1.023,-17.029,4.944,-0.610
0.062,-0.377,0.951,-5.920,5.249,2.930
0.044,-0.330,0.897,-0.977,4.395,6.042
0.043,-0.258,0.862,-0.732,2.441,8.179
0.052,-0.230,0.853,-0.916,0.305,7.446
0.066,-0.224,0.860,-3.906,-0.854,5.249
0.074,-0.232,0.871,-9.094,-1.221,2.686
0.072,-0.257,0.879,-13.489,-1.099,0.549
0.060,-0.300,0.897,-16.296,-0.854,-0.854
0.044,-0.336,0.900,-16.785,-0.793,-0.977
0.018,-0.342,0.870,-15.076,-0.916,0.305
0.000,-0.336,0.842,-11.719,-2.380,2.136
-0.008,-0.346,0.855,-7.751,-5.859,4.700
-0.001,-0.324,0.906,-3.845,-9.399,7.507
0.017,-0.302,0.954,-0.977,-11.047,9.766
0.039,-0.199,1.001,0.916,-11.108,11.292
0.051,-0.142,0.993,0.244,-9.094,9.644
0.053,-0.141,0.980,-3.540,-5.859,5.188
0.053,-0.202,0.992,-8.545,-4.150,1.343

-1.444,0.715,0.641,27.100,-39.429,-138.672
-1.661,0.756,0.374,26.367,-35.034,-143.860
-1.769,0.730,0.310,15.808,-44.434,-150.940
-1.791,0.527,0.461,3.052,-63.721,-160.339
-1.664,0.107,0.649,-5.432,-81.238,-170.044
-1.436,-0.362,0.992,-1.221,-94.788,-173.279
-1.156,-0.848,1.254,10.315,-97.168,-168.030
-0.981,-1.267,1.329,34.302,-88.196,-150.391
-0.840,-1.504,1.301,60.730,-73.792,-120.605
-0.724,-1.714,1.337,78.979,-63.965,-85.693
-0.595,-1.564,1.379,90.454,-55.664,-39.978
-0.500,-1.163,1.473,96.863,-48.218,4.211
-0.427,-0.692,1.575,96.191,-37.292,36.499
-0.403,-0.168,1.559,86.975,-20.081,58.533
-0.473,0.320,1.433,62.622,-0.549,69.763
-0.480,0.453,1.330,23.621,14.771,67.139
-0.474,0.340,1.259,-15.564,24.292,59.692
-0.523,0.160,1.076,-37.109,33.813,54.321
-0.621,-0.013,0.762,-33.325,37.842,53.406
-0.683,-0.121,0.586,-15.442,30.701,56.030
-0.708,-0.228,0.580,5.859,15.015,61.951
-0.744,-0.189,0.582,27.222,0.244,71.655
-0.755,-0.026,0.645,44.495,-14.465,80.872
-0.780,0.177,0.662,54.871,-25.940,84.290
-0.809,0.312,0.802,50.232,-35.034,81.360
-0.825,0.263,0.852,39.063,-37.354,73.853
-0.772,0.156,1.134,12.756,-37.170,65.491
-0.727,0.144,1.340,-14.587,-27.649,59.875
-0.699,0.022,1.328,-33.325,-9.338,53.101
-0.691,-0.131,1.180,-45.959,10.620,46.631
-0.694,-0.257,1.075,-56.152,25.269,45.593
-0.722,-0.332,0.917,-53.528,36.621,47.852
-0.735,-0.365,0.658,-39.673,41.016,53.040
-0.747,-0.426,0.588,-24.048,34.302,57.068
-0.781,-0.377,0.566,-7.446,24.231,62.744
-0.800,-0.329,0.564,8.972,14.343,66.895
-0.772,-0.299,0.618,18.799,5.798,69.519
-0.719,-0.233,0.770,18.250,0.854,73.120
-0.661,-0.173,0.870,5.005,1.770,75.195
-0.607,-0.161,0.961,-11.963,5.371,74.097
-0.550,-0.241,1.086,-27.161,9.644,70.129
-0.474,-0.270,1.086,-35.095,16.724,67.322
-0.416,-0.236,1.030,-25.635,23.743,65.674
-0.338,-0.226,0.922,-13.306,28.503,61.890
-0.242,-0.188,0.804,-4.578,30.823,58.411
-0.148,-0.194,0.727,-4.395,30.518,55.786
-0.082,-0.162,0.767,-9.827,26.917,53.528
-0.005,-0.122,0.749,-15.808,24.292,51.880
0.069,-0.171,0.785,-17.517,21.362,47.241
0.154,-0.272,0.881,-18.982,16.602,44.006
0.199,-0.338,0.993,-17.822,14.099,44.006
0.188,-0.274,0.998,-10.071,15.991,46.204
0.234,-0.055,1.012,-3.357,17.761,45.776
0.325,0.112,1.115,-0.610,18.066,34.851
0.414,0.089,1.156,-0.916,24.231,14.343
0.471,0.007,1.214,-7.141,32.043,-4.089
0.513,-0.040,1.219,-20.447,41.870,-16.479
0.568,-0.189,1.200,-32.349,51.208,-27.832
0.613,-0.360,1.196,-36.865,58.289,-34.485
0.738,-0.517,1.134,-31.067,64.575,-33.630
0.897,-0.494,1.049,-22.583,69.580,-23.926
1.057,-0.131,0.903,-8.484,72.693,-9.399
1.203,0.211,0.819,16.785,70.129,-2.686
1.303,0.344,0.602,55.115,65.613,-5.798
1.367,0.666,0.290,88.074,59.875,-5.676
1.414,1.289,0.181,106.445,45.166,-4.944
1.413,1.611,0.115,93.994,33.203,-21.484
1.271,1.423,0.133,49.316,24.414,-54.443
1.010,0.911,0.279,-10.864,15.015,-89.844
0.736,-0.031,0.560,-50.842,2.258,-123.352
0.469,-0.948,0.770,-54.138,-8.606,-140.137
0.325,-1.455,0.841,-28.320,-18.494,-127.197
0.261,-1.504,1.005,-5.676,-27.405,-98.511
0.252,-1.384,1.179,7.690,-35.156,-69.763
0.277,-1.178,1.314,9.277,-36.316,-45.898
0.319,-0.972,1.463,2.563,-33.875,-29.907
0.336,-0.815,1.534,-2.502,-26.978,-20.569
0.329,-0.763,1.536,-3.845,-17.700,-14.771
0.318,-0.732,1.459,-1.953,-8.667,-7.629
0.324,-0.574,1.481,3.357,-3.967,1.831
0.319,-0.431,1.380,15.869,1.526,9.521
0.326,-0.262,1.283,24.719,5.676,14.771
0.336,-0.125,1.192,26.062,9.705,15.503
0.331,-0.036,1.113,18.860,12.573,12.634
0.300,-0.050,1.050,7.812,14.587,6.714
0.258,-0.179,1.020,-2.258,14.709,0.671
0.213,-0.312,0.974,-9.094,14.648,-1.282
0.156,-0.362,0.968,-11.658,12.451,0.549
0.106,-0.420,0.871,-7.996,10.132,3.540
0.071,-0.462,0.858,-4.089,5.981,7.019
0.072,-0.405,0.853,-2.563,1.221,11.963
0.085,-0.309,0.878,-2.441,-1.770,15.808
0.088,-0.279,0.900,-5.615,-2.930,16.235
0.080,-0.227,0.879,-9.644,-2.625,16.052
0.072,-0.269,0.880,-12.878,-2.380,14.221
0.038,-0.287,0.900,-15.747,-2.808,13.855
0.002,-0.313,0.869,-12.329,-2.991,15.442
-0.038,-0.324,0.819,-7.019,-5.005,17.761
-0.041,-0.229,0.831,-1.770,-9.155,21.118
-0.010,-0.113,0.891,1.831,-13.672,21.790
0.036,-0.047,0.975,1.526,-15.076,18.860
0.057,0.014,1.040,-3.540,-12.878,14.343
0.041,-0.022,1.036,-11.169,-7.751,8.057
0.017,-0.130,1.023,-16.602,-2.930,1.892
-0.005,-0.206,1.020,-17.334,-0.061,-0.427
-0.035,-0.233,1.013,-13.062,1.465,-0.244
-0.057,-0.226,0.957,-6.104,2.014,0.916
-0.051,-0.174,0.916,1.282,0.488,2.258
-0.026,-0.150,0.956,4.333,-1.770,3.052
0.005,-0.123,1.005,4.333,-2.502,2.441
0.028,-0.103,1.021,3.296,-0.854,1.038
0.031,-0.126,0.998,0.610,1.648,-1.465
0.029,-0.148,0.977,-2.319,3.967,-3.784
0.027,-0.193,0.961,-4.517,5.127,-5.859
0.021,-0.246,0.946,-5.249,5.310,-6.775
0.014,-0.270,0.914,-2.380,4.883,-6.104
0.013,-0.321,0.874,1.831,3.113,-4.761
0.014,-0.285,0.876,6.653,-0.122,-1.648
0.039,-0.207,0.908,10.559,-3.052,0.916

0.713,-0.602,1.307,-12.817,6.226,42.297
0.770,-0.612,1.266,-4.761,10.681,49.011
0.809,-0.473,1.187,2.991,14.893,59.875
0.862,-0.360,1.062,12.329,17.029,67.200
0.906,-0.232,0.983,18.311,15.320,71.960
0.953,-0.049,0.889,20.203,13.306,75.439
1.041,0.027,0.810,21.179,9.705,74.280
1.112,0.122,0.792,15.076,4.944,70.068
1.173,0.147,0.779,3.357,-0.854,66.101
1.192,0.155,0.815,-5.249,-5.310,59.265
1.166,0.076,0.844,-8.423,-10.864,49.866
1.126,-0.002,0.832,-4.089,-15.137,41.260
1.086,0.009,0.807,3.174,-20.630,35.767
1.051,-0.020,0.971,1.282,-27.283,29.541
1.016,0.081,1.093,-1.038,-29.236,24.475
0.964,0.257,1.090,-0.732,-25.330,16.724
0.882,0.344,0.995,-0.793,-19.775,0.977
0.759,0.348,0.834,-9.094,-15.869,-18.250
0.610,0.219,0.730,-23.804,-16.846,-39.001
0.484,0.017,0.693,-33.508,-22.095,-57.434
0.399,-0.195,0.807,-36.316,-29.968,-70.435
0.362,-0.399,0.990,-38.330,-34.241,-75.867
0.308,-0.417,1.117,-36.926,-31.128,-73.120
0.241,-0.294,1.107,-23.926,-21.301,-67.749
0.139,-0.072,1.034,-5.127,-8.728,-67.017
-0.014,0.195,0.746,12.451,4.028,-70.984
-0.180,0.355,0.520,15.808,12.939,-81.909
-0.392,0.502,0.321,6.836,14.954,-92.590
-0.634,0.548,0.087,-7.690,12.451,-104.675
-0.824,0.496,-0.099,-19.653,2.075,-116.699
-1.021,0.387,-0.149,-31.494,-12.695,-125.549
-1.190,0.252,-0.027,-43.884,-30.518,-129.028
-1.342,0.310,0.234,-51.025,-45.715,-127.563
-1.495,0.201,0.562,-45.776,-54.749,-129.761
-1.608,0.043,0.773,-35.583,-52.917,-131.165
-1.790,0.090,0.896,-25.879,-46.997,-124.512
-1.914,0.129,0.924,-22.827,-41.199,-117.676
-1.983,0.085,0.927,-20.020,-42.297,-115.784
-1.917,-0.075,0.998,-24.536,-52.124,-114.868
-1.615,-0.345,1.317,-24.597,-69.336,-115.967
-1.237,-0.795,1.675,-13.489,-78.796,-113.525
-0.928,-1.166,1.746,16.235,-69.763,-100.891
-0.756,-1.305,1.532,57.495,-50.232,-75.745
-0.680,-1.323,1.387,92.041,-35.095,-46.204
-0.688,-1.194,1.185,113.708,-23.682,-13.977
-0.704,-0.808,1.140,117.371,-19.714,20.386
-0.678,-0.357,1.121,114.014,-21.240,48.035
-0.598,0.004,1.252,106.506,-24.048,62.927
-0.541,0.272,1.283,90.332,-21.851,68.420
-0.483,0.410,1.248,71.106,-14.099,67.139
-0.432,0.455,1.173,47.729,-5.920,62.195
-0.436,0.461,1.021,26.245,2.502,56.702
-0.465,0.410,0.850,6.226,7.507,51.636
-0.515,0.354,0.720,-13.428,6.287,47.729
-0.543,0.314,0.677,-37.476,0.305,45.410
-0.574,0.179,0.740,-54.260,-7.446,42.053
-0.556,0.024,0.814,-56.702,-12.756,39.917
-0.552,0.056,0.951,-60.852,-18.921,44.617
-0.556,0.126,0.999,-55.481,-20.752,47.607
-0.562,0.152,1.035,-42.114,-20.996,47.180
-0.579,0.107,1.045,-28.137,-20.264,45.837
-0.602,0.047,1.056,-16.174,-19.165,45.776
-0.632,0.031,1.080,-6.592,-18.555,47.546
-0.641,0.081,1.085,-0.671,-16.113,49.927
-0.633,0.126,1.096,-0.610,-10.925,50.049
-0.643,0.134,1.125,-9.216,-3.113,47.729
-0.698,0.046,1.021,-21.973,8.301,43.091
-0.767,-0.162,0.966,-32.654,16.663,37.903
-0.840,-0.407,0.923,-36.621,21.790,36.987
-0.903,-0.592,0.885,-30.701,23.865,42.725
-0.914,-0.716,0.932,-15.259,22.156,53.467
-0.931,-0.694,0.899,11.169,22.095,67.200
-0.926,-0.532,0.804,39.124,23.010,81.360
-0.861,-0.258,0.681,59.631,20.874,91.553
-0.756,0.020,0.653,61.096,16.846,95.154
-0.659,0.119,0.719,42.114,13.184,90.088
-0.570,0.045,0.884,13.977,13.428,79.956
-0.492,-0.056,0.995,-8.179,19.714,68.665
-0.441,-0.169,1.020,-16.052,28.564,59.814
-0.423,-0.269,0.992,-13.245,37.598,53.711
-0.416,-0.259,0.863,-0.183,43.518,51.758
-0.401,-0.241,0.717,17.578,45.898,49.133
-0.360,-0.280,0.578,28.137,43.945,44.739
-0.295,-0.313,0.536,28.503,38.147,42.297
-0.169,-0.373,0.600,21.118,30.396,41.504
-0.061,-0.456,0.699,5.188,23.987,41.321
0.049,-0.447,0.769,-12.634,19.226,43.457
0.160,-0.193,0.947,-23.865,14.038,45.166
0.283,-0.152,1.101,-23.926,11.414,34.790
0.431,-0.291,1.260,-17.456,13.367,18.127
0.565,-0.366,1.317,-8.728,20.569,9.460
0.726,-0.393,1.376,-2.930,28.931,8.118
0.961,-0.266,1.399,1.465,37.170,11.414
1.215,0.029,1.409,9.521,46.570,15.076
1.429,0.352,1.457,17.700,57.007,12.512
1.673,0.569,1.274,46.448,69.336,7.202
1.724,0.820,0.989,83.252,80.688,3.235
1.772,1.264,0.593,118.835,82.092,1.221
1.692,1.748,0.148,143.066,77.515,-6.042
1.585,2.095,-0.079,133.240,63.293,-27.832
1.397,2.111,-0.206,89.844,45.654,-64.209
1.132,1.624,-0.019,9.827,26.611,-112.549
0.848,0.638,0.373,-65.247,6.775,-161.255
0.537,-0.468,0.649,-106.384,-4.272,-193.909
0.249,-1.518,0.894,-110.596,-15.564,-202.271
0.046,-2.405,1.060,-85.815,-24.658,-184.631
-0.018,-2.780,1.276,-44.556,-33.020,-141.113
-0.031,-2.572,1.348,-5.371,-34.912,-85.266
-0.001,-2.114,1.363,18.311,-31.677,-38.269
0.044,-1.687,1.281,21.240,-26.306,-8.667
0.130,-1.349,1.376,6.409,-21.057,7.812
0.200,-1.178,1.424,-8.240,-11.658,17.151
0.242,-1.088,1.498,-22.644,-2.625,27.344
0.269,-0.885,1.491,-22.034,7.446,41.565
0.297,-0.575,1.446,-6.653,15.930,55.481
0.308,-0.271,1.308,15.991,22.461,63.782
0.306,0.074,1.104,35.767,26.611,67.200
0.337,0.334,0.968,46.265,26.245,64.026
0.359,0.547,0.879,43.640,23.560,54.749

-1.756,1.414,0.044,76.782,-15.442,-133.423
-2.292,1.734,-0.135,54.443,-22.217,-156.006
-2.802,1.550,-0.134,3.845,-44.067,-187.622
-2.986,0.751,0.533,-61.340,-84.167,-222.717
-2.756,-0.258,1.465,-114.197,-119.202,-238.525
-2.265,-1.088,2.210,-124.695,-130.798,-231.567
-1.552,-1.904,2.613,-65.125,-118.408,-215.027
-0.999,-2.764,2.478,34.119,-82.031,-191.223
-0.847,-3.001,1.749,136.292,-32.837,-140.259
-0.810,-2.587,1.203,194.031,-2.991,-67.261
-0.814,-1.841,0.834,187.744,4.761,0.122
-0.753,-1.211,0.816,126.404,2.197,49.133
-0.656,-0.678,1.187,49.927,-3.540,81.482
-0.576,-0.214,1.350,2.747,2.930,98.267
-0.526,0.051,1.261,-17.090,20.386,99.792
-0.583,0.169,0.916,-22.583,39.307,93.445
-0.543,0.369,0.509,-21.851,48.645,90.332
-0.549,0.525,0.257,-29.724,44.556,85.693
-0.560,0.494,0.143,-42.542,30.029,76.416
-0.553,0.435,0.196,-46.631,8.423,67.993
-0.519,0.270,0.314,-39.734,-13.916,59.265
-0.481,0.066,0.466,-26.611,-34.241,53.833
-0.525,-0.009,0.658,-12.756,-50.110,54.199
-0.519,-0.013,0.866,4.700,-61.401,58.533
-0.507,0.084,1.088,25.330,-66.589,61.340
-0.458,0.207,1.416,27.649,-70.679,62.012
-0.413,0.359,1.605,19.165,-62.073,58.533
-0.372,0.404,1.714,14.343,-44.067,50.781
-0.343,0.300,1.682,8.728,-20.996,38.696
-0.397,0.115,1.411,-1.343,4.761,28.442
-0.494,-0.034,1.163,-13.855,25.940,21.484
-0.606,-0.125,0.880,-18.555,36.926,18.433
-0.680,-0.256,0.658,-21.362,39.307,15.503
-0.720,-0.453,0.595,-15.259,32.104,15.442
-0.741,-0.560,0.630,-16.235,24.963,22.034
-0.732,-0.559,0.746,-14.465,16.174,33.386
-0.702,-0.591,0.740,-8.484,14.160,44.067
-0.628,-0.522,0.877,-6.409,11.658,53.345
-0.569,-0.483,0.800,3.174,14.648,60.242
-0.566,-0.397,0.695,7.629,18.433,66.284
-0.512,-0.264,0.603,7.385,17.517,73.120
-0.506,-0.128,0.586,-4.150,13.733,76.538
-0.488,-0.024,0.658,-17.639,6.714,76.599
-0.429,-0.062,0.819,-27.283,-0.366,71.960
-0.384,-0.184,0.984,-28.870,-3.845,67.261
-0.377,-0.248,1.045,-25.635,-1.953,66.956
-0.369,-0.249,0.972,-16.174,1.465,69.641
-0.313,-0.217,0.967,-4.639,1.648,71.411
-0.233,-0.138,0.954,3.296,1.526,72.205
-0.131,-0.074,1.002,10.376,2.747,70.984
-0.089,-0.047,0.932,13.000,6.653,66.223
-0.074,-0.027,0.917,2.258,8.118,63.599
-0.058,-0.009,0.864,-5.249,10.986,59.448
-0.003,-0.080,0.955,-11.475,9.888,54.932
0.070,-0.079,0.997,-12.573,10.559,52.612
0.101,-0.089,1.034,-9.155,12.390,50.903
0.103,-0.039,0.981,-2.441,14.648,48.584
0.135,0.026,0.969,5.554,14.954,44.556
0.166,-0.002,1.032,12.146,12.573,36.987
0.185,-0.027,1.095,15.991,13.489,29.663
0.205,-0.003,1.125,15.930,18.066,24.170
0.198,0.025,1.128,12.207,23.560,17.578
0.184,-0.072,1.103,3.052,30.457,9.155
0.166,-0.158,1.039,-7.080,35.034,3.601
0.137,-0.132,1.016,-10.864,35.767,1.282
0.135,-0.259,1.066,-8.423,32.898,-3.052
0.178,-0.422,1.130,-1.038,30.701,-6.287
0.234,-0.350,1.174,6.287,30.823,-1.221
0.297,-0.231,1.187,11.658,32.166,5.188
0.364,-0.224,1.173,13.062,35.095,9.155
0.385,-0.202,1.093,9.155,39.551,13.306
0.402,-0.109,0.965,4.578,41.687,17.822
0.445,0.096,0.901,8.057,38.391,15.991
0.544,0.101,1.028,20.569,29.663,6.409
0.608,0.016,1.003,30.457,28.687,-3.052
0.647,0.089,0.986,27.222,28.870,-3.601
0.662,0.152,0.926,23.560,28.870,-4.883
0.715,0.092,0.854,27.954,28.015,-11.353
0.709,0.192,0.827,35.645,25.146,-15.503
0.719,0.354,0.729,37.659,25.146,-18.250
0.739,0.434,0.752,34.973,20.874,-29.907
0.669,0.405,0.626,25.757,20.325,-46.082
0.574,0.193,0.559,18.188,17.151,-62.195
0.509,-0.110,0.572,6.531,9.644,-74.707
0.458,-0.398,0.656,-0.244,1.160,-78.857
0.420,-0.592,0.775,-3.296,-5.798,-73.547
0.398,-0.619,0.892,-0.854,-11.292,-62.805
0.361,-0.709,0.945,4.395,-13.794,-54.626
0.321,-0.809,0.981,8.057,-14.282,-46.387
0.286,-0.793,1.012,6.470,-14.404,-34.729
0.280,-0.722,1.109,4.333,-14.709,-23.987
0.292,-0.620,1.191,3.906,-12.451,-17.578
0.305,-0.459,1.185,5.066,-7.446,-12.695
0.283,-0.341,1.177,1.953,-2.319,-11.414
0.265,-0.349,1.070,1.709,1.404,-11.169
0.242,-0.409,1.073,0.427,3.052,-10.071
0.248,-0.361,1.094,0.000,3.357,-5.371
0.266,-0.318,1.148,3.113,3.479,-1.160
0.254,-0.311,1.134,7.019,6.348,-0.061
0.215,-0.289,1.035,8.728,10.742,1.343
0.193,-0.268,0.964,6.409,13.184,1.526
0.165,-0.261,0.921,-0.122,13.184,0.793
0.124,-0.305,0.879,-7.996,12.268,0.061
0.084,-0.376,0.876,-12.756,9.583,-0.854
0.063,-0.449,0.907,-13.916,6.592,0.000
0.046,-0.482,0.928,-12.146,3.845,3.479
0.028,-0.469,0.916,-7.263,2.014,8.667
0.025,-0.425,0.914,-1.404,-0.488,13.611
0.044,-0.299,0.943,4.150,-2.808,18.066
0.067,-0.187,0.963,6.470,-3.723,19.226
0.068,-0.095,0.975,3.357,-3.235,17.456
0.053,-0.100,0.990,-1.953,-1.892,12.634
0.033,-0.163,0.994,-7.019,-0.488,7.812
0.016,-0.181,1.020,-10.376,0.610,5.432
0.018,-0.181,1.002,-8.240,2.075,4.211
0.017,-0.181,0.981,-5.188,2.808,2.747
0.005,-0.209,0.922,-3.235,3.723,1.953
0.000,-0.224,0.885,-1.587,2.869,1.648
0.003,-0.246,0.889,-0.244,0.793,1.709

0.840,-0.523,1.291,-30.762,-4.517,53.650
0.883,-0.492,1.332,-27.283,-2.930,58.228
0.922,-0.344,1.365,-23.499,-0.366,62.500
0.979,-0.144,1.347,-18.921,2.686,63.049
1.015,-0.022,1.282,-18.738,6.958,55.969
1.029,0.077,1.260,-25.818,9.033,46.387
1.020,0.103,1.118,-32.898,11.475,33.630
0.996,0.020,1.057,-37.415,8.850,19.592
0.952,-0.019,1.047,-40.710,3.235,8.911
0.886,0.022,0.996,-37.598,-2.319,1.587
0.816,0.078,0.967,-28.687,-8.301,-6.348
0.735,0.179,0.923,-19.836,-13.550,-15.015
0.661,0.253,0.969,-14.832,-18.433,-26.001
0.565,0.268,1.063,-12.207,-20.752,-40.283
0.437,0.248,1.119,-10.010,-15.747,-56.396
0.261,0.224,1.036,-6.409,-4.822,-71.533
0.007,0.311,0.811,1.160,7.263,-83.862
-0.268,0.402,0.538,13.611,15.076,-96.863
-0.525,0.511,0.214,29.968,18.250,-109.924
-0.828,0.750,-0.085,39.368,14.893,-121.033
-1.112,0.845,-0.391,38.086,5.310,-134.338
-1.417,0.777,-0.473,20.996,-13.367,-150.879
-1.686,0.673,-0.524,-2.686,-36.987,-161.316
-1.876,0.452,-0.284,-28.076,-64.697,-167.358
-2.014,0.207,0.134,-53.772,-89.355,-165.771
-2.077,0.018,0.562,-68.481,-102.112,-156.372
-2.087,-0.138,0.940,-74.036,-104.736,-142.517
-2.091,-0.114,1.150,-71.838,-98.694,-126.587
-2.051,-0.123,1.369,-63.354,-93.262,-116.394
-1.864,-0.536,1.583,-45.227,-88.440,-114.441
-1.559,-0.956,1.737,-22.034,-81.238,-103.638
-1.254,-1.246,1.810,11.902,-69.092,-78.796
-1.031,-1.322,1.696,54.993,-50.110,-45.105
-0.890,-1.225,1.533,97.778,-30.762,-9.644
-0.841,-0.995,1.222,129.456,-13.306,24.841
-0.811,-0.578,0.981,145.081,-3.296,56.580
-0.790,-0.116,0.866,145.142,-1.282,80.078
-0.743,0.338,0.853,130.615,-1.770,93.445
-0.727,0.665,0.767,106.934,-1.404,94.971
-0.615,0.791,0.843,78.186,-2.869,85.022
-0.538,0.773,0.849,50.415,-1.404,73.181
-0.481,0.690,0.819,22.278,3.662,60.486
-0.457,0.611,0.712,-4.211,8.667,49.683
-0.474,0.476,0.661,-23.987,11.047,40.039
-0.488,0.378,0.664,-36.133,9.216,32.410
-0.505,0.219,0.690,-42.175,7.141,25.818
-0.542,0.106,0.684,-45.593,6.165,22.949
-0.539,-0.003,0.715,-45.349,5.493,23.071
-0.547,-0.057,0.731,-41.809,3.784,25.879
-0.566,-0.036,0.759,-36.438,0.183,30.823
-0.592,-0.011,0.797,-29.236,-4.517,34.119
-0.629,-0.065,0.831,-21.362,-9.094,35.034
-0.653,-0.099,0.940,-15.259,-13.672,36.865
-0.664,-0.142,0.953,-4.944,-13.916,39.063
-0.626,-0.167,1.017,4.272,-12.817,40.894
-0.593,-0.159,1.047,10.132,-8.240,42.236
-0.566,-0.085,1.026,8.850,-2.869,44.128
-0.532,-0.059,0.932,3.601,2.747,42.847
-0.490,-0.144,0.920,-5.798,7.874,39.063
-0.496,-0.318,0.921,-9.766,12.573,35.950
-0.503,-0.454,0.925,-9.399,16.113,36.438
-0.493,-0.545,0.900,2.136,17.639,40.039
-0.463,-0.578,0.931,17.944,17.090,46.387
-0.456,-0.467,0.886,34.912,16.907,54.688
-0.441,-0.354,0.832,49.866,16.113,59.814
-0.386,-0.254,0.816,57.861,13.611,59.937
-0.310,-0.250,0.772,50.903,13.550,56.030
-0.229,-0.214,0.809,29.602,13.733,52.734
-0.190,-0.264,0.878,4.456,13.611,49.194
-0.166,-0.364,0.980,-12.268,15.076,42.480
-0.121,-0.440,1.008,-11.169,16.968,36.072
-0.054,-0.504,1.044,-2.625,18.860,31.189
0.000,-0.448,1.099,4.517,20.325,30.579
0.053,-0.397,1.115,7.568,23.804,29.663
0.100,-0.364,1.139,5.249,27.344,27.649
0.091,-0.299,1.174,1.709,31.250,25.513
0.135,-0.380,1.019,7.141,35.400,21.118
0.169,-0.322,1.172,-1.709,34.058,17.700
0.196,-0.300,1.130,-1.038,36.560,12.878
0.244,-0.309,1.076,-0.183,40.466,6.287
0.305,-0.234,1.037,-2.869,41.260,0.854
0.364,-0.340,1.007,-7.385,42.175,-7.202
0.420,-0.460,1.046,-13.062,41.504,-13.245
0.466,-0.526,1.032,-16.418,42.725,-13.733
0.514,-0.528,1.110,-17.517,41.931,-10.254
0.555,-0.486,1.153,-15.442,43.396,-6.042
0.599,-0.448,1.166,-17.334,47.913,-3.235
0.653,-0.390,1.087,-19.226,54.199,-0.488
0.634,-0.380,0.969,-27.588,58.411,0.793
0.623,-0.469,0.855,-36.865,58.594,1.099
0.608,-0.469,0.895,-41.443,49.988,7.080
0.671,-0.406,0.940,-34.851,40.527,14.221
0.764,-0.228,0.995,-13.489,30.945,23.071
0.853,0.019,1.043,10.925,24.841,29.419
0.904,0.290,0.971,25.330,24.658,33.386
0.931,0.614,0.929,30.334,26.367,31.555
0.912,0.812,0.774,24.963,29.297,20.874
0.829,0.819,0.588,5.981,31.738,3.479
0.693,0.594,0.569,-21.301,25.330,-16.541
0.580,0.362,0.620,-43.762,14.648,-31.433
0.493,-0.018,0.854,-46.753,0.854,-44.006
0.424,-0.344,0.954,-34.851,-6.348,-48.645
0.401,-0.394,1.110,-23.071,-9.155,-41.382
0.390,-0.350,1.118,-10.925,-5.859,-34.119
0.378,-0.291,1.093,-8.789,-1.770,-30.151
0.346,-0.296,1.035,-11.658,3.174,-30.396
0.302,-0.459,0.993,-19.226,7.263,-32.532
0.264,-0.644,0.981,-23.437,8.911,-30.457
0.226,-0.701,0.975,-18.127,8.667,-22.400
0.203,-0.688,0.964,-6.226,7.263,-11.597
0.172,-0.628,0.908,7.263,5.676,-1.465
0.175,-0.438,0.928,15.564,2.808,8.606
0.188,-0.262,0.924,18.982,1.282,14.221
0.176,-0.130,0.929,16.174,1.587,15.015
0.161,-0.103,0.899,8.301,2.686,12.146
0.164,-0.141,0.935,0.122,2.258,8.240
0.167,-0.136,0.972,-4.395,1.770,7.263
0.159,-0.115,0.957,-2.747,2.136,7.629
0.139,-0.076,0.908,1.038,1.770,7.324

-1.979,1.160,-0.378,-7.812,0.854,-141.602
-2.367,0.882,-0.234,-28.259,-23.926,-169.250
-2.616,0.426,0.211,-67.261,-47.424,-186.951
-2.683,0.096,0.696,-104.248,-68.359,-185.242
-2.602,-0.104,1.318,-135.681,-85.815,-173.767
-2.288,-0.439,2.097,-146.912,-97.656,-165.222
-1.848,-0.911,2.540,-110.107,-87.158,-160.645
-1.323,-1.390,2.535,-31.311,-59.021,-150.818
-1.018,-1.732,1.903,65.613,-18.311,-129.883
-0.940,-1.736,1.213,140.930,13.550,-96.741
-0.915,-1.580,0.645,181.946,25.330,-57.312
-0.886,-1.216,0.310,179.993,23.376,-14.587
-0.791,-0.634,0.473,131.653,5.615,27.161
-0.663,-0.070,0.795,71.838,-5.798,57.251
-0.535,0.361,1.115,25.940,-8.545,68.604
-0.421,0.599,1.218,4.395,0.732,64.148
-0.397,0.679,0.961,-0.061,17.700,51.819
-0.435,0.804,0.661,-5.920,29.602,40.649
-0.406,0.774,0.400,-18.982,29.297,28.992
-0.443,0.656,0.294,-41.077,20.020,17.029
-0.476,0.565,0.266,-55.237,4.639,8.850
-0.412,0.403,0.460,-59.692,-15.076,2.563
-0.378,0.223,0.621,-53.040,-29.968,-1.099
-0.342,0.094,0.731,-34.851,-36.926,-2.014
-0.340,0.076,0.853,-23.865,-43.823,0.244
-0.356,0.017,0.990,-15.625,-48.401,2.380
-0.389,0.038,1.089,-1.648,-51.086,7.385
-0.396,0.025,1.210,13.672,-51.208,11.108
-0.418,0.031,1.246,25.940,-47.668,12.085
-0.393,0.041,1.295,33.203,-40.588,12.146
-0.390,0.053,1.269,27.344,-28.870,11.292
-0.434,0.007,1.166,10.742,-14.038,9.338
-0.482,-0.170,1.029,-4.639,-2.441,6.104
-0.518,-0.363,0.970,-16.357,5.310,5.371
-0.575,-0.544,0.933,-21.973,10.986,10.010
-0.656,-0.610,0.843,-21.301,15.747,19.409
-0.714,-0.641,0.902,-17.944,16.663,30.273
-0.756,-0.659,0.909,-8.850,18.860,39.734
-0.791,-0.626,0.951,4.822,21.851,49.377
-0.813,-0.651,0.885,20.081,27.832,56.580
-0.830,-0.537,0.729,29.358,34.241,66.101
-0.817,-0.401,0.563,25.879,36.621,75.500
-0.772,-0.119,0.497,13.672,33.447,82.275
-0.710,-0.029,0.491,-3.662,26.672,80.750
-0.651,-0.104,0.571,-23.621,19.775,73.853
-0.608,-0.205,0.719,-38.757,14.099,69.946
-0.568,-0.305,0.873,-41.504,11.230,69.641
-0.541,-0.354,0.914,-33.936,12.634,71.899
-0.492,-0.300,0.925,-20.630,13.794,76.904
-0.400,-0.218,0.949,-7.507,12.695,79.834
-0.312,-0.088,0.939,5.371,12.207,80.261
-0.237,0.014,0.995,11.780,10.559,76.660
-0.167,0.080,1.037,12.268,10.376,69.397
-0.095,0.119,1.068,4.700,12.573,60.791
-0.055,0.055,1.062,-5.249,17.334,49.255
-0.020,-0.072,1.002,-9.033,21.912,39.795
0.025,-0.263,1.002,-12.207,23.437,33.508
0.064,-0.331,1.028,-11.047,22.461,33.142
0.105,-0.377,1.074,-4.272,20.508,35.828
0.146,-0.295,1.095,4.761,19.348,37.842
0.215,-0.272,1.081,17.212,18.921,35.889
0.245,-0.193,1.001,26.489,21.057,31.982
0.249,-0.179,0.958,23.376,22.339,27.893
0.248,-0.192,0.894,13.245,23.621,22.583
0.255,-0.247,1.028,2.441,21.179,17.029
0.258,-0.370,1.064,-6.409,23.437,9.888
0.263,-0.421,1.040,-9.155,27.405,5.859
0.230,-0.412,1.039,-7.568,28.503,3.540
0.214,-0.402,1.068,-5.371,27.588,2.808
0.216,-0.367,1.179,-6.470,26.611,1.343
0.225,-0.352,1.161,-11.353,29.480,-1.648
0.208,-0.420,1.208,-20.264,31.677,-5.310
0.193,-0.536,1.270,-33.630,33.752,-7.202
0.257,-0.531,1.375,-39.124,33.752,-4.944
0.337,-0.590,1.500,-29.907,34.973,-2.747
0.412,-0.659,1.452,-12.939,41.870,2.930
0.477,-0.530,1.364,5.920,47.546,18.372
0.613,-0.322,1.192,27.832,50.720,35.522
0.764,0.194,1.049,56.580,49.377,53.589
0.933,0.888,0.824,80.139,47.913,64.209
1.083,1.586,0.674,93.140,43.152,57.678
1.186,2.049,0.532,93.994,38.025,31.616
1.159,1.933,0.415,69.702,34.729,-8.484
0.986,1.596,0.403,23.743,30.457,-46.814
0.775,0.942,0.495,-22.583,23.315,-80.444
0.569,0.269,0.634,-50.659,13.733,-102.478
0.427,-0.409,0.704,-54.504,5.310,-110.535
0.262,-0.832,0.926,-52.429,-3.967,-107.300
0.208,-1.207,0.962,-33.569,-10.071,-94.543
0.169,-1.437,1.075,-21.240,-13.672,-78.369
0.134,-1.536,1.208,-17.456,-14.648,-58.777
0.169,-1.525,1.307,-14.038,-13.062,-36.804
0.211,-1.378,1.393,-7.935,-7.629,-15.686
0.252,-1.214,1.349,3.662,0.793,1.953
0.285,-0.851,1.253,17.883,9.338,18.677
0.311,-0.520,1.120,29.053,15.869,31.006
0.336,-0.157,0.995,34.912,19.836,36.743
0.337,0.093,0.841,32.593,20.935,36.438
0.311,0.205,0.740,22.644,18.799,30.762
0.280,0.159,0.735,8.484,13.489,23.682
0.251,0.072,0.860,-4.578,6.958,18.188
0.202,-0.021,0.962,-9.155,3.357,14.648
0.139,-0.124,1.016,-7.446,2.563,12.695
0.075,-0.195,1.029,-5.005,2.686,13.123
0.045,-0.151,1.057,-1.770,2.869,13.794
0.033,-0.151,1.062,-0.854,3.784,11.414
0.026,-0.162,1.049,-4.456,5.981,7.202
0.000,-0.245,0.977,-9.827,8.728,3.235
-0.018,-0.405,0.974,-14.221,8.728,1.099
-0.037,-0.465,0.926,-11.658,7.751,4.395
-0.043,-0.436,0.888,-2.930,5.188,11.108
-0.046,-0.326,0.859,6.287,1.526,18.372
-0.013,-0.168,0.909,12.817,-2.869,22.583
0.047,0.071,0.953,16.174,-5.188,22.827
0.086,0.180,0.950,10.315,-3.113,16.174
0.088,0.105,0.980,-3.784,-0.366,5.981
0.068,-0.036,0.991,-17.212,3.052,-1.465
0.044,-0.157,0.975,-19.775,5.432,-5.127
0.021,-0.201,0.919,-12.939,6.531,-5.554

0.941,-0.490,1.109,3.174,9.521,66.895
1.021,-0.368,1.145,4.639,5.005,71.594
1.089,-0.276,1.103,7.874,4.089,71.899
1.095,-0.126,1.062,9.216,2.930,68.970
1.094,-0.050,0.960,9.521,2.747,61.462
1.089,0.109,0.852,9.216,-0.427,52.124
1.071,0.227,0.729,11.414,-5.554,38.818
1.037,0.208,0.579,13.306,-13.550,20.813
1.008,0.158,0.548,9.766,-24.597,4.517
0.942,-0.021,0.577,1.648,-36.194,-9.644
0.880,-0.072,0.735,-2.991,-47.180,-20.081
0.809,-0.054,0.903,-0.183,-51.697,-27.588
0.719,0.018,0.995,8.179,-46.082,-34.912
0.572,0.156,0.898,16.907,-32.410,-41.443
0.413,0.470,0.757,32.104,-17.151,-47.119
0.222,0.713,0.479,48.706,-2.197,-60.486
-0.060,1.093,0.127,56.213,10.742,-78.613
-0.444,1.551,-0.278,57.739,14.771,-104.065
-0.871,1.522,-0.740,40.955,10.193,-142.578
-1.335,1.266,-0.667,-7.874,-9.155,-179.443
-1.805,0.984,-0.441,-67.627,-29.602,-200.317
-2.243,0.618,-0.100,-114.990,-46.143,-210.388
-2.639,0.369,0.240,-140.808,-59.021,-210.754
-2.992,0.077,0.277,-146.179,-69.214,-205.139
-3.159,-0.187,0.591,-145.020,-90.698,-195.801
-2.942,-0.337,1.281,-148.254,-124.695,-179.504
-2.448,-0.645,2.259,-149.292,-149.841,-167.358
-1.682,-1.075,3.093,-121.338,-148.560,-157.227
-1.057,-1.751,3.129,-44.861,-108.826,-147.217
-0.835,-2.373,2.353,54.626,-46.814,-124.451
-0.831,-2.629,1.709,135.315,-3.845,-77.148
-0.883,-2.428,1.053,180.725,17.822,-11.230
-0.957,-1.604,0.807,178.223,16.968,61.523
-0.842,-0.618,0.973,152.283,4.150,117.615
-0.763,0.285,1.185,119.202,-1.831,144.836
-0.639,0.747,1.292,83.130,2.136,146.179
-0.579,0.888,1.181,55.664,15.198,129.944
-0.496,0.946,0.821,39.429,29.785,113.831
-0.478,0.916,0.505,21.545,33.875,99.243
-0.485,0.886,0.288,-1.648,28.442,85.571
-0.555,0.836,0.176,-27.893,15.930,73.242
-0.609,0.804,0.206,-51.941,-2.136,61.707
-0.601,0.613,0.389,-69.031,-23.499,48.645
-0.531,0.369,0.604,-80.811,-39.856,37.720
-0.469,0.150,0.966,-89.050,-49.805,32.410
-0.386,0.043,1.173,-81.909,-49.377,34.668
-0.378,0.096,1.291,-58.777,-40.466,41.382
-0.409,0.137,1.188,-23.865,-27.100,45.715
-0.510,0.221,0.971,9.644,-18.005,47.485
-0.577,0.322,0.891,22.278,-19.104,47.546
-0.612,0.250,0.849,20.691,-24.109,42.664
-0.624,0.204,0.928,13.672,-28.198,40.894
-0.593,0.090,1.136,-0.183,-27.527,40.649
-0.541,-0.025,1.212,-12.817,-18.616,41.077
-0.516,0.010,1.172,-21.912,-6.409,43.945
-0.520,-0.075,1.089,-25.757,3.906,41.016
-0.576,-0.218,1.005,-19.348,13.245,38.208
-0.643,-0.308,0.779,-8.728,20.447,39.612
-0.679,-0.319,0.728,-2.197,18.738,44.067
-0.674,-0.311,0.667,-0.488,15.259,49.744
-0.641,-0.266,0.659,-2.197,10.498,56.641
-0.559,-0.212,0.799,-2.563,3.418,62.073
-0.476,-0.177,0.977,-1.648,-1.343,64.453
-0.429,-0.252,1.121,6.775,-0.366,63.049
-0.428,-0.293,1.223,14.648,4.089,63.416
-0.437,-0.256,1.204,24.109,12.695,65.247
-0.426,-0.162,1.079,32.227,20.508,65.063
-0.380,-0.064,0.951,33.386,25.757,60.852
-0.309,-0.068,0.953,25.146,25.452,52.246
-0.251,-0.157,0.909,14.160,27.100,42.114
-0.173,-0.239,0.894,7.080,27.283,34.241
-0.095,-0.326,0.925,6.531,25.574,28.809
0.009,-0.339,0.943,10.803,24.109,26.611
0.074,-0.405,0.958,13.184,24.109,24.719
0.077,-0.407,0.943,15.015,23.865,25.513
0.122,-0.473,0.976,16.479,22.217,27.832
0.162,-0.473,1.020,17.456,20.691,31.494
0.226,-0.372,0.975,20.264,21.362,35.461
0.346,-0.175,0.948,24.109,20.508,35.217
0.494,-0.070,1.003,20.691,18.311,25.940
0.649,-0.057,1.106,17.212,17.273,11.780
0.743,-0.215,1.085,16.113,21.545,-3.052
0.793,-0.410,1.092,12.085,26.672,-12.512
0.817,-0.548,1.050,9.338,31.128,-12.939
0.799,-0.606,0.994,11.108,33.997,-6.897
0.781,-0.526,0.919,13.550,34.546,2.869
0.810,-0.182,0.997,18.494,30.640,13.245
0.860,0.108,1.072,27.893,28.503,12.451
0.866,0.282,1.151,24.597,30.640,1.587
0.799,0.250,1.071,13.489,35.950,-11.780
0.686,0.066,1.029,-1.221,39.551,-25.330
0.617,-0.177,0.991,-9.521,36.804,-34.180
0.629,-0.446,1.034,-7.629,31.799,-37.415
0.658,-0.498,1.123,4.150,25.574,-30.029
0.708,-0.345,1.113,15.503,25.330,-16.907
0.710,-0.057,1.041,25.269,26.001,-8.179
0.762,0.310,0.981,28.320,26.001,-8.118
0.767,0.366,0.801,22.278,28.259,-21.729
0.733,0.368,0.750,4.150,26.672,-36.255
0.626,0.126,0.675,-20.081,25.208,-49.744
0.522,-0.176,0.738,-35.095,17.822,-58.411
0.465,-0.491,0.818,-33.752,9.155,-59.448
0.422,-0.624,0.872,-22.156,3.540,-51.636
0.369,-0.660,0.856,-8.667,0.977,-40.405
0.310,-0.591,0.823,-0.732,-0.916,-28.870
0.276,-0.510,0.852,-0.183,-2.991,-20.508
0.247,-0.475,0.922,-5.005,-4.822,-15.686
0.222,-0.495,0.998,-11.536,-5.188,-12.634
0.207,-0.505,1.067,-14.099,-3.967,-9.705
0.186,-0.554,1.057,-11.353,-1.038,-7.019
0.156,-0.553,1.087,-6.653,1.282,-1.953
0.139,-0.430,1.017,2.625,4.272,5.371
0.133,-0.291,0.961,11.047,5.127,10.376
0.134,-0.211,0.909,12.756,5.554,10.864
0.129,-0.094,0.905,8.728,4.700,10.803
0.120,-0.053,0.896,1.160,4.456,6.592
0.103,-0.078,0.906,-6.104,3.662,0.977
0.073,-0.160,0.867,-11.841,3.357,-3.418
0.054,-0.219,0.899,-15.259,0.610,-5.188

0.956,-0.258,1.317,-28.076,21.362,24.475
0.967,-0.240,1.312,-24.597,22.217,23.376
0.964,-0.191,1.222,-18.005,24.048,21.240
0.934,-0.014,1.084,-8.362,25.269,17.761
0.903,0.155,0.905,-1.282,25.513,10.071
0.867,0.255,0.725,-2.197,22.827,-1.465
0.787,0.303,0.598,-12.573,17.334,-14.648
0.735,0.165,0.657,-23.804,8.423,-29.053
0.693,0.012,0.764,-30.396,2.258,-38.513
0.636,-0.182,0.973,-28.992,1.709,-40.405
0.542,-0.278,1.129,-25.146,9.827,-34.729
0.301,-0.154,0.990,-3.662,29.846,-24.719
-0.053,0.020,0.547,30.273,51.331,-15.320
-0.582,0.320,-0.078,64.392,59.814,-9.399
-1.071,0.431,-0.709,91.064,49.011,-10.010
-1.442,0.606,-1.111,105.103,16.785,-16.663
-1.731,1.023,-1.047,85.815,-30.090,-30.518
-1.966,1.339,-0.537,52.429,-77.515,-60.669
-2.132,1.031,0.001,8.850,-108.276,-113.037
-2.309,0.442,0.529,-41.870,-123.169,-158.875
-2.466,-0.218,0.824,-108.521,-124.939,-182.922
-2.417,-0.748,1.281,-177.979,-131.592,-183.228
-2.106,-1.136,1.877,-226.379,-141.907,-167.664
-1.565,-1.461,2.680,-237.610,-146.179,-147.949
-0.938,-1.775,3.225,-181.274,-125.977,-128.357
-0.459,-2.206,3.231,-64.941,-76.416,-109.497
-0.486,-2.392,2.483,75.134,-9.460,-79.224
-0.619,-2.091,1.514,202.332,41.870,-30.579
-0.726,-1.600,0.785,270.142,60.852,20.203
-0.819,-0.509,0.363,275.696,53.406,73.914
-0.762,0.607,0.171,240.662,31.372,106.018
-0.617,1.222,0.320,174.194,3.235,101.318
-0.447,1.320,0.559,95.032,-17.395,77.087
-0.323,1.302,0.693,26.733,-23.987,52.124
-0.324,1.288,0.513,-16.785,-22.278,31.250
-0.378,1.116,0.405,-45.898,-28.381,7.935
-0.453,0.830,0.344,-64.026,-42.480,-12.512
-0.512,0.619,0.395,-70.679,-62.012,-26.550
-0.495,0.354,0.623,-66.467,-83.435,-38.147
-0.522,0.058,0.941,-59.875,-98.999,-44.800
-0.485,-0.099,1.357,-52.307,-103.638,-40.466
-0.493,-0.273,1.331,-23.560,-92.163,-33.081
-0.483,-0.118,1.496,2.686,-85.327,-20.081
-0.559,-0.017,1.411,20.020,-75.806,-11.353
-0.643,0.103,1.367,34.180,-64.514,-8.240
-0.703,0.059,1.359,43.396,-58.411,-10.254
-0.734,-0.161,1.453,39.246,-51.270,-13.123
-0.718,-0.425,1.545,22.461,-36.987,-9.827
-0.701,-0.537,1.624,-0.854,-17.029,2.136
-0.776,-0.443,1.468,-14.221,7.507,19.043
-0.873,-0.450,1.321,-14.160,28.259,27.771
-0.990,-0.621,1.055,2.502,43.152,30.457
-1.044,-0.712,0.928,16.418,49.622,38.513
-1.078,-0.666,0.689,30.151,53.406,53.406
-1.061,-0.531,0.527,36.987,49.500,69.397
-0.975,-0.343,0.540,33.691,40.039,82.397
-0.911,-0.251,0.572,24.719,33.020,89.417
-0.839,-0.098,0.679,13.550,28.687,93.079
-0.722,-0.025,0.705,5.798,28.381,91.675
-0.629,-0.074,0.785,-2.441,29.663,84.656
-0.564,-0.171,0.802,-11.536,33.630,79.346
-0.500,-0.244,0.701,-18.066,39.856,76.599
-0.465,-0.248,0.588,-19.897,42.603,76.599
-0.414,-0.185,0.569,-13.977,40.283,76.416
-0.374,-0.176,0.531,-5.859,35.828,71.838
-0.316,-0.134,0.630,-9.949,26.672,67.383
-0.232,-0.090,0.746,-8.118,19.226,60.608
-0.124,-0.148,0.904,-8.118,13.611,51.147
-0.014,-0.105,1.015,-5.432,12.634,43.823
0.061,-0.055,1.076,-4.517,16.357,36.926
0.146,-0.078,0.998,-2.258,23.254,26.123
0.264,-0.140,0.934,-3.418,28.870,13.428
0.354,-0.302,0.941,-9.155,31.250,2.502
0.408,-0.504,0.946,-21.606,35.522,-3.601
0.421,-0.500,0.954,-31.555,38.208,-3.174
0.463,-0.517,0.950,-31.616,37.476,-2.686
0.565,-0.505,1.120,-28.625,33.875,-3.662
0.702,-0.438,1.157,-17.761,31.616,-2.686
0.843,-0.253,1.360,-10.559,32.166,-0.488
0.955,-0.076,1.422,-0.305,36.804,0.061
0.990,-0.010,1.458,9.155,45.166,-0.610
1.142,0.022,1.403,21.667,53.650,-1.587
1.200,0.294,1.312,37.964,60.547,3.967
1.183,0.494,0.952,51.208,69.580,8.728
1.157,0.771,0.707,60.974,66.101,10.254
1.076,0.788,0.353,60.303,58.044,5.005
0.976,0.846,0.183,38.513,41.992,-2.075
0.891,0.968,0.333,7.202,18.921,-14.587
0.842,0.679,0.671,-17.822,-0.305,-45.898
0.706,-0.038,1.048,-34.607,-10.132,-80.566
0.536,-0.726,1.175,-39.734,-6.958,-93.811
0.341,-1.229,1.176,-35.278,-1.099,-87.891
0.174,-1.705,1.132,-19.348,-0.122,-71.899
0.085,-1.892,1.056,11.292,-2.441,-44.983
0.147,-1.451,1.119,44.617,-8.545,-11.353
0.288,-0.858,1.098,62.317,-9.399,10.559
0.386,-0.399,1.114,44.678,-3.601,15.137
0.373,-0.324,1.035,10.925,5.432,7.019
0.322,-0.423,1.020,-11.597,11.536,-0.427
0.285,-0.462,1.094,-15.991,10.559,-0.671
0.301,-0.353,1.082,4.028,9.644,7.080
0.322,-0.095,1.038,27.222,10.559,15.564
0.328,0.163,0.996,39.368,10.132,18.982
0.311,0.328,0.894,38.269,12.695,14.648
0.276,0.303,0.847,23.193,13.428,2.502
0.223,0.097,0.843,1.770,14.587,-10.803
0.165,-0.177,0.907,-17.395,14.587,-21.423
0.100,-0.470,0.952,-27.100,15.198,-25.818
0.052,-0.660,0.930,-23.560,15.564,-23.621
0.019,-0.757,0.848,-12.817,14.404,-16.113
0.021,-0.743,0.829,-1.770,11.902,-5.920
0.040,-0.620,0.803,5.066,7.629,3.174
0.063,-0.515,0.767,9.827,4.944,9.338
0.087,-0.395,0.707,9.521,2.686,12.390
0.105,-0.304,0.729,2.930,-1.587,13.306
0.117,-0.234,0.771,-3.113,-4.883,12.756
0.120,-0.229,0.862,-7.202,-8.606,10.864
0.099,-0.250,0.886,-7.507,-9.949,9.827
0.070,-0.292,0.918,-5.432,-10.498,10.254

1.016,-0.136,1.369,-23.254,6.042,52.307
1.010,-0.001,1.303,-23.804,16.785,49.072
0.963,0.046,1.079,-24.109,25.696,41.565
0.872,0.044,0.847,-28.625,27.771,31.494
0.865,0.029,0.746,-33.447,19.653,23.499
0.860,-0.064,0.778,-38.269,8.362,14.771
0.838,-0.046,0.854,-44.434,-2.686,10.620
0.829,-0.004,0.928,-39.612,-10.925,6.348
0.816,0.099,0.948,-28.564,-16.357,0.488
0.834,0.255,1.061,-18.616,-18.250,-7.629
0.862,0.421,1.221,-16.907,-13.550,-20.447
0.833,0.511,1.327,-26.978,1.038,-37.598
0.685,0.597,1.269,-42.725,22.644,-56.458
0.449,0.504,0.932,-54.565,44.067,-77.393
0.146,0.404,0.503,-60.974,54.626,-95.276
-0.087,0.241,0.190,-62.561,49.866,-104.553
-0.313,0.154,-0.004,-55.664,33.752,-104.980
-0.520,0.066,-0.062,-53.894,13.367,-98.755
-0.745,0.247,-0.074,-41.138,-6.165,-87.524
-1.021,0.667,-0.177,-11.841,-22.827,-79.407
-1.323,1.031,-0.269,16.174,-40.344,-88.379
-1.691,1.469,-0.137,30.334,-61.584,-110.168
-2.083,1.361,0.134,19.958,-81.360,-147.888
-2.447,0.823,0.369,-11.047,-94.727,-185.364
-2.664,0.251,0.621,-62.500,-105.164,-201.904
-2.647,-0.185,1.195,-119.995,-123.230,-199.524
-2.372,-0.698,1.767,-150.879,-136.414,-188.171
-1.833,-1.218,2.477,-139.343,-140.442,-172.791
-1.234,-1.675,2.852,-73.730,-122.437,-154.602
-0.815,-2.083,2.487,33.752,-76.172,-129.700
-0.682,-2.216,1.794,139.893,-28.442,-93.811
-0.729,-2.060,1.276,205.933,-0.427,-43.823
-0.773,-1.531,0.736,228.760,12.085,11.841
-0.782,-0.703,0.674,202.881,4.639,62.500
-0.730,0.063,0.894,148.437,-7.690,94.849
-0.590,0.518,1.177,92.834,-12.268,103.210
-0.447,0.709,1.319,50.293,-4.639,96.313
-0.369,0.821,1.236,22.888,11.292,85.083
-0.313,0.839,0.914,7.568,29.053,73.120
-0.341,0.846,0.493,-5.859,37.842,61.584
-0.364,0.881,0.325,-23.193,30.884,51.575
-0.375,0.807,0.344,-40.466,12.817,39.124
-0.382,0.657,0.524,-48.035,-5.493,25.818
-0.361,0.435,0.694,-45.349,-19.897,13.916
-0.333,0.222,0.882,-33.569,-29.175,7.080
-0.343,-0.016,1.004,-23.193,-31.738,6.042
-0.402,-0.123,1.013,-6.348,-29.724,11.169
-0.414,-0.039,1.118,22.095,-33.691,20.142
-0.408,-0.017,1.197,45.105,-40.710,23.315
-0.399,0.005,1.333,56.274,-42.847,22.888
-0.384,-0.003,1.440,62.134,-38.025,22.461
-0.364,0.000,1.422,62.866,-24.963,23.010
-0.405,0.059,1.371,42.419,-8.118,24.414
-0.492,-0.013,1.255,14.526,8.728,21.484
-0.593,-0.234,1.035,-8.240,24.475,15.930
-0.710,-0.438,0.911,-23.682,33.325,14.343
-0.783,-0.745,0.700,-21.790,35.522,16.174
-0.829,-1.021,0.539,-7.385,30.396,24.536
-0.824,-1.098,0.572,16.968,15.930,42.908
-0.779,-1.058,0.565,50.049,2.991,63.843
-0.707,-0.716,0.576,78.125,-7.263,85.571
-0.622,-0.314,0.528,93.445,-14.648,99.487
-0.521,0.086,0.567,78.857,-19.714,102.966
-0.452,0.237,0.694,40.161,-21.606,95.032
-0.411,0.076,0.812,-2.380,-18.616,79.773
-0.414,-0.187,0.967,-32.043,-14.221,67.200
-0.426,-0.470,1.062,-40.894,-8.667,59.937
-0.411,-0.581,1.003,-27.527,-2.441,60.181
-0.365,-0.580,0.911,-2.869,-0.854,65.491
-0.299,-0.397,0.890,14.526,-2.502,73.120
-0.198,-0.235,0.816,26.306,-4.150,76.294
-0.071,-0.124,0.811,27.649,-5.005,74.402
0.040,-0.133,0.863,16.785,-4.700,69.702
0.098,-0.157,0.906,1.160,-1.648,64.819
0.108,-0.224,0.872,-12.756,3.845,60.486
0.119,-0.290,0.859,-20.569,6.653,57.678
0.110,-0.405,0.880,-21.973,6.897,57.739
0.093,-0.477,0.901,-18.921,5.676,61.279
0.092,-0.557,0.945,-12.329,2.991,67.932
0.095,-0.440,1.038,-10.742,0.305,77.393
0.134,-0.075,1.094,-3.723,-0.122,82.886
0.254,0.183,1.229,3.540,-0.732,71.167
0.321,0.085,1.318,2.747,4.822,45.044
0.361,-0.065,1.264,-8.606,17.883,25.024
0.384,-0.222,1.226,-26.733,28.442,13.977
0.401,-0.523,1.214,-42.664,35.645,6.409
0.410,-0.704,1.268,-46.326,38.757,7.507
0.400,-0.819,1.237,-29.114,41.382,15.625
0.436,-0.865,1.135,-1.404,43.335,27.771
0.512,-0.819,1.018,27.893,42.419,45.471
0.622,-0.400,0.822,42.969,40.710,71.472
0.796,0.347,0.885,37.659,31.616,90.454
1.021,0.905,1.117,27.527,22.522,82.886
1.109,1.251,1.182,23.376,24.658,55.542
1.161,1.218,1.176,26.855,33.081,20.752
1.155,1.200,1.186,29.175,38.086,-6.531
1.076,1.201,1.017,38.025,47.241,-26.733
0.940,1.190,0.733,44.067,52.673,-46.631
0.796,1.059,0.434,40.405,50.781,-68.054
0.659,0.839,0.286,21.423,38.452,-90.820
0.515,0.424,0.337,-2.869,19.653,-112.000
0.367,-0.081,0.506,-31.006,1.404,-127.319
0.277,-0.620,0.818,-51.819,-14.404,-131.775
0.228,-1.164,1.101,-59.814,-23.926,-128.357
0.203,-1.528,1.345,-57.068,-26.062,-113.647
0.207,-1.671,1.521,-43.457,-21.912,-88.623
0.236,-1.613,1.501,-17.334,-11.597,-59.448
0.250,-1.355,1.369,3.174,-0.305,-31.799
0.262,-0.998,1.182,18.372,8.850,-11.475
0.280,-0.715,0.997,25.330,14.343,-0.793
0.283,-0.473,0.850,23.682,15.808,5.432
0.290,-0.290,0.785,15.869,12.268,9.216
0.308,-0.169,0.857,8.179,6.775,10.010
0.312,-0.102,0.927,2.441,3.479,10.254
0.301,-0.043,0.970,2.258,2.441,10.193
0.268,-0.010,0.974,2.197,3.174,9.399
0.231,-0.005,0.965,-0.061,3.601,7.019
0.182,-0.097,0.984,-3.784,4.089,3.296
0.147,-0.147,0.990,-5.310,4.333,0.305

1.000,-0.255,1.341,-33.936,-13.123,46.021
0.967,-0.101,1.333,-30.212,-3.906,45.593
0.976,-0.027,1.232,-22.217,5.493,39.795
0.928,0.035,1.103,-21.973,13.733,31.616
0.857,0.071,0.940,-23.499,19.653,22.888
0.775,0.166,0.819,-24.719,20.386,12.268
0.709,0.207,0.677,-24.109,18.921,0.366
0.625,0.233,0.566,-28.625,13.794,-12.329
0.537,0.174,0.492,-34.241,5.188,-25.024
0.497,-0.014,0.573,-39.673,-5.859,-37.231
0.500,-0.065,0.807,-46.936,-16.785,-41.687
0.487,-0.032,1.024,-48.401,-18.555,-42.419
0.386,0.080,1.103,-39.795,-9.460,-43.213
0.206,0.280,0.922,-21.118,5.798,-44.189
-0.100,0.482,0.500,1.587,18.311,-49.011
-0.373,0.622,-0.131,30.945,19.775,-57.190
-0.623,0.898,-0.396,38.818,0.977,-65.796
-0.867,1.155,-0.395,29.602,-25.208,-81.177
-1.114,1.248,-0.121,6.042,-48.462,-105.042
-1.437,1.247,0.022,-21.973,-59.753,-131.775
-1.772,0.944,0.102,-44.312,-65.308,-163.879
-2.073,0.530,0.314,-65.247,-73.853,-188.477
-2.284,0.012,0.595,-82.947,-81.970,-200.745
-2.433,-0.315,0.763,-100.342,-87.585,-196.777
-2.367,-0.552,1.005,-110.107,-98.389,-183.105
-2.058,-1.013,1.612,-107.544,-113.159,-169.678
-1.584,-1.490,2.198,-80.872,-114.685,-150.085
-1.143,-1.763,2.351,-20.874,-91.309,-119.141
-0.881,-1.884,2.072,62.561,-54.810,-83.496
-0.772,-1.828,1.502,141.113,-18.555,-44.983
-0.796,-1.585,1.059,191.711,0.366,-4.944
-0.823,-1.138,0.736,210.083,6.714,36.377
-0.839,-0.454,0.600,195.679,1.831,73.730
-0.762,0.202,0.658,151.794,-8.301,97.839
-0.633,0.681,0.955,91.431,-16.968,101.990
-0.483,0.849,1.215,33.569,-15.076,91.797
-0.380,0.842,1.259,-6.775,-2.686,75.500
-0.366,0.734,1.134,-28.625,12.207,60.364
-0.365,0.630,0.969,-35.217,22.339,48.767
-0.429,0.615,0.853,-37.231,24.597,41.931
-0.476,0.597,0.799,-40.344,19.226,35.889
-0.521,0.450,0.786,-36.804,10.559,28.931
-0.539,0.294,0.778,-28.503,1.282,24.780
-0.511,0.160,0.803,-16.296,-7.812,24.475
-0.461,0.081,0.807,-0.610,-15.381,26.855
-0.448,0.227,0.837,16.907,-21.912,31.738
-0.412,0.331,0.925,22.705,-26.001,31.799
-0.403,0.359,1.000,31.189,-26.489,28.259
-0.410,0.352,1.114,20.691,-26.123,23.682
-0.457,0.260,1.176,4.395,-21.912,18.921
-0.542,0.076,1.213,-7.019,-16.663,13.733
-0.594,-0.095,1.192,-7.141,-10.437,12.695
-0.616,-0.233,1.107,6.653,-4.883,14.221
-0.627,-0.351,1.189,16.968,-3.235,18.127
-0.638,-0.438,1.231,27.161,-1.282,25.635
-0.684,-0.346,1.157,44.739,5.676,36.560
-0.720,-0.325,1.047,61.584,13.123,42.480
-0.723,-0.348,0.972,67.139,16.907,44.983
-0.721,-0.354,0.738,68.726,22.339,48.584
-0.650,-0.251,0.627,56.885,21.790,53.284
-0.515,-0.207,0.618,41.870,15.564,54.626
-0.386,-0.282,0.712,28.564,10.254,52.185
-0.286,-0.309,0.790,20.447,7.690,52.673
-0.220,-0.252,0.885,12.329,7.812,54.443
-0.213,-0.319,0.886,10.742,8.728,51.880
-0.208,-0.386,0.913,13.000,9.216,50.232
-0.223,-0.454,0.801,26.733,11.047,51.575
-0.221,-0.480,0.760,34.241,9.094,54.260
-0.209,-0.481,0.690,39.795,4.578,58.167
-0.201,-0.372,0.620,46.326,0.183,61.340
-0.108,-0.344,0.712,40.955,-5.737,59.082
-0.025,-0.268,0.767,26.794,-9.033,56.335
0.063,-0.289,0.822,7.751,-6.531,51.575
0.092,-0.280,0.887,-13.916,-2.991,46.143
0.149,-0.372,0.916,-21.545,1.587,39.917
0.149,-0.445,0.924,-19.531,5.859,36.987
0.113,-0.501,0.806,-13.123,11.353,37.231
0.107,-0.646,0.635,-1.465,11.414,40.344
0.095,-0.722,0.554,3.052,6.042,51.086
0.089,-0.622,0.450,7.446,-2.930,68.420
0.170,-0.204,0.516,7.263,-18.188,82.825
0.308,0.199,0.869,9.949,-36.316,78.979
0.394,0.356,1.162,16.235,-42.175,52.979
0.527,0.223,1.443,26.367,-36.438,20.874
0.637,0.229,1.609,16.541,-22.034,0.244
0.715,0.267,1.709,-10.803,-0.977,-14.465
0.739,0.282,1.791,-32.715,21.423,-34.302
0.720,-0.033,1.738,-27.100,44.006,-59.021
0.650,-0.350,1.610,-5.981,61.951,-75.317
0.584,-0.543,1.451,21.606,74.646,-75.989
0.547,-0.658,1.092,51.147,82.214,-67.566
0.579,-0.613,0.868,68.176,78.918,-54.993
0.674,-0.325,0.735,71.899,68.054,-41.199
0.784,-0.151,0.656,64.941,57.495,-38.086
0.868,-0.106,0.806,40.894,45.105,-44.434
0.879,-0.228,0.918,17.761,39.063,-53.284
0.841,-0.474,0.995,-0.183,37.292,-60.852
0.789,-0.607,0.995,-14.648,34.546,-59.814
0.732,-0.822,0.995,-9.155,29.114,-51.575
0.648,-0.941,0.820,11.047,30.457,-42.603
0.606,-0.889,0.757,20.386,20.630,-25.574
0.574,-0.742,0.723,24.658,11.047,-9.094
0.567,-0.526,0.749,19.409,2.197,2.319
0.541,-0.362,0.801,9.033,-4.578,7.446
0.493,-0.298,0.871,-5.249,-8.911,6.165
0.426,-0.374,0.950,-19.409,-11.047,1.221
0.368,-0.464,1.055,-29.968,-11.169,-1.831
0.308,-0.631,1.130,-33.997,-9.033,-1.892
0.250,-0.655,1.171,-30.029,-4.761,3.601
0.185,-0.608,1.103,-18.799,-0.427,12.207
0.116,-0.480,0.989,-5.920,2.563,19.409
0.076,-0.361,0.889,2.625,2.686,23.254
0.068,-0.224,0.864,2.136,0.305,24.292
0.069,-0.169,0.914,-6.226,-1.526,21.240
0.059,-0.200,0.929,-15.991,-0.916,15.991
0.043,-0.278,0.960,-24.536,0.305,11.414
0.018,-0.342,0.973,-26.306,2.136,10.803
-0.007,-0.374,0.946,-21.301,4.089,12.390
-0.013,-0.344,0.935,-12.512,4.089,14.954

0.620,-0.752,1.238,4.578,9.399,20.874
0.652,-0.761,1.174,7.141,13.672,29.602
0.690,-0.726,1.089,8.911,15.015,39.490
0.736,-0.701,1.029,9.216,14.160,47.791
0.758,-0.619,1.008,5.615,12.085,55.054
0.783,-0.534,1.010,3.662,9.338,61.279
0.813,-0.548,0.958,2.136,6.653,63.721
0.833,-0.538,0.917,-1.648,3.845,67.078
0.894,-0.577,0.915,-6.287,-0.427,70.129
0.923,-0.615,0.887,-10.437,-3.418,73.975
0.948,-0.640,0.907,-19.226,-6.470,80.200
0.996,-0.571,0.984,-24.414,-11.169,87.097
1.002,-0.521,1.043,-25.391,-13.123,92.773
1.009,-0.413,1.074,-22.827,-13.123,96.741
1.028,-0.247,1.152,-17.273,-13.672,97.473
0.999,-0.100,1.099,-7.874,-10.437,92.590
0.915,0.103,0.939,3.845,-5.798,83.130
0.827,0.208,0.576,7.446,-3.601,67.993
0.746,0.294,0.474,-4.578,-10.864,48.950
0.685,0.291,0.401,-26.001,-21.423,31.250
0.665,0.171,0.612,-51.575,-34.180,12.573
0.627,0.046,0.760,-66.223,-40.527,-2.258
0.575,-0.070,0.872,-69.397,-40.710,-13.306
0.567,-0.157,1.050,-67.505,-39.246,-20.630
0.529,-0.091,1.063,-57.678,-30.396,-22.644
0.478,-0.011,1.040,-41.199,-19.592,-24.597
0.346,0.253,0.953,-19.165,-9.644,-28.992
0.095,0.543,0.490,6.592,-0.916,-39.368
-0.047,0.781,0.050,31.433,-2.502,-57.434
-0.185,0.895,-0.144,37.354,-16.724,-78.186
-0.279,0.880,-0.074,17.944,-36.682,-99.487
-0.352,0.803,0.269,-3.357,-53.589,-117.676
-0.465,0.683,0.574,-15.198,-58.350,-132.324
-0.613,0.539,0.699,-15.869,-48.645,-142.029
-0.835,0.388,0.715,-11.841,-31.982,-145.508
-1.151,0.479,0.632,-14.160,-12.390,-140.015
-1.540,1.006,0.331,-16.052,0.366,-134.644
-2.064,1.339,0.090,-15.259,-2.014,-150.024
-2.402,0.992,-0.096,-15.625,-19.775,-183.228
-2.641,0.323,0.282,-43.152,-51.086,-209.534
-2.527,-0.133,1.052,-88.928,-86.121,-205.994
-2.167,-0.605,1.819,-113.281,-103.882,-191.956
-1.738,-1.066,2.279,-99.304,-98.450,-177.185
-1.275,-1.592,2.380,-29.114,-75.378,-161.804
-1.025,-2.024,1.967,59.448,-40.833,-136.292
-0.978,-1.900,1.453,130.066,-9.705,-93.628
-0.954,-1.640,1.023,166.931,3.357,-47.180
-0.860,-1.165,0.866,161.133,3.601,-2.563
-0.701,-0.600,0.965,118.103,-0.977,34.363
-0.589,-0.170,1.119,71.045,-0.732,55.786
-0.476,0.085,1.200,35.400,7.935,63.049
-0.466,0.307,0.993,14.771,22.400,65.857
-0.465,0.445,0.781,-1.221,32.715,62.317
-0.453,0.599,0.609,-14.282,33.813,56.030
-0.463,0.687,0.462,-24.719,28.442,47.913
-0.481,0.579,0.402,-30.762,15.503,35.950
-0.483,0.383,0.497,-30.273,-1.587,24.597
-0.458,0.240,0.712,-25.940,-17.517,18.066
-0.450,0.045,0.792,-18.311,-25.696,13.794
-0.493,-0.084,0.871,-6.287,-29.419,13.611
-0.510,-0.097,0.949,3.113,-34.851,17.883
-0.556,-0.038,1.035,9.949,-39.673,21.179
-0.604,-0.079,1.103,17.334,-43.335,20.935
-0.625,-0.123,1.261,20.996,-44.495,20.508
-0.644,-0.118,1.393,20.447,-38.269,21.729
-0.707,-0.129,1.278,12.146,-22.766,23.071
-0.769,-0.205,1.172,-5.737,-6.775,23.987
-0.861,-0.366,0.973,-16.113,5.920,24.963
-0.930,-0.489,0.790,-16.907,13.245,28.503
-0.985,-0.611,0.699,-9.155,11.108,35.095
-1.035,-0.731,0.533,6.348,7.690,44.739
-1.050,-0.742,0.590,15.869,-0.671,59.998
-1.036,-0.597,0.579,24.536,-6.042,76.660
-1.008,-0.402,0.554,31.860,-9.460,90.027
-0.948,-0.214,0.601,27.893,-12.024,96.680
-0.868,-0.077,0.633,17.578,-11.597,98.755
-0.785,-0.123,0.646,-1.526,-9.033,96.863
-0.700,-0.088,0.743,-20.935,-6.592,94.543
-0.584,-0.117,0.703,-27.222,-3.845,90.454
-0.476,-0.112,0.663,-20.630,-2.197,85.754
-0.392,-0.092,0.647,-18.005,-3.662,81.177
-0.311,-0.041,0.737,-20.081,-6.958,77.271
-0.250,0.029,0.898,-29.114,-9.705,71.472
-0.117,0.065,1.003,-27.588,-8.728,61.890
-0.023,0.178,1.106,-22.217,-5.920,53.101
0.057,0.110,1.042,-14.221,-0.793,41.199
0.118,-0.005,1.050,-8.911,1.770,28.992
0.216,-0.185,0.970,-7.202,3.479,20.813
0.335,-0.282,1.037,-5.859,2.258,16.113
0.453,-0.339,1.114,-3.906,0.854,14.221
0.529,-0.312,1.099,4.028,4.639,13.000
0.585,-0.164,1.096,10.742,6.958,12.939
0.632,-0.062,1.102,11.902,8.179,7.935
0.675,0.117,1.188,5.432,8.850,-1.038
0.705,0.140,1.425,-5.249,11.353,-18.005
0.715,-0.013,1.448,-2.686,21.484,-40.222
0.727,-0.074,1.435,-7.263,33.875,-52.612
0.729,-0.182,1.511,-18.127,43.457,-63.110
0.690,-0.308,1.390,-12.634,55.847,-70.557
0.662,-0.387,1.216,-0.549,62.866,-73.853
0.649,-0.497,1.103,16.174,61.340,-73.242
0.683,-0.454,0.960,34.912,57.251,-66.284
0.745,-0.252,0.939,45.410,47.913,-54.260
0.802,0.099,0.867,49.561,41.504,-45.288
0.838,0.236,0.861,43.518,35.828,-46.570
0.828,0.209,0.899,26.733,31.982,-53.772
0.750,0.114,0.903,6.470,30.029,-60.242
0.693,-0.146,1.063,-9.399,24.658,-69.397
0.610,-0.371,1.126,-10.071,21.851,-74.158
0.534,-0.538,1.099,-3.235,22.522,-72.510
0.458,-0.654,1.064,1.221,21.484,-65.430
0.374,-0.771,0.997,1.953,20.630,-56.274
0.312,-0.874,0.984,-1.038,16.968,-45.288
0.294,-0.914,0.906,-7.202,12.512,-32.349
0.269,-0.749,1.134,-19.897,6.165,-19.958
0.270,-0.776,1.125,-13.489,6.226,-15.442
0.249,-0.784,1.203,-14.526,7.874,-9.460
0.194,-0.770,1.129,-12.939,12.695,-2.563
0.140,-0.742,1.026,-10.071,16.296,5.188

-1.876,0.899,0.337,-25.940,-19.531,-91.003
-2.286,0.928,0.221,-41.870,-28.564,-112.305
-2.706,0.668,0.119,-61.829,-50.293,-141.418
-2.842,0.074,0.568,-99.121,-90.393,-163.025
-2.576,-0.334,1.439,-160.950,-133.118,-163.879
-2.073,-0.603,2.509,-214.600,-156.860,-153.442
-1.365,-1.288,3.605,-212.402,-156.128,-150.085
-0.670,-2.040,4.000,-115.723,-112.122,-145.447
-0.365,-2.539,3.508,47.913,-33.569,-121.094
-0.587,-2.608,2.343,208.557,45.532,-78.125
-0.858,-2.256,1.007,323.181,92.102,-20.020
-0.977,-1.506,0.110,349.792,91.736,42.480
-0.913,-0.740,-0.175,310.913,59.204,95.703
-0.803,0.187,0.033,226.135,18.372,133.240
-0.585,0.809,0.366,136.169,-8.972,143.494
-0.380,1.120,0.623,66.650,-20.752,127.747
-0.288,1.183,0.490,30.823,-18.555,101.074
-0.298,1.030,0.268,13.794,-16.846,69.397
-0.342,0.917,0.093,-5.188,-25.208,46.448
-0.384,0.782,0.071,-29.785,-39.856,30.823
-0.400,0.668,0.256,-54.688,-58.777,19.470
-0.384,0.398,0.464,-71.472,-74.036,9.460
-0.392,0.142,0.713,-73.792,-83.191,4.395
-0.295,0.062,1.005,-60.425,-88.684,8.118
-0.274,-0.061,1.207,-34.973,-84.473,12.207
-0.259,-0.005,1.166,0.122,-68.604,19.470
-0.301,0.221,1.173,19.836,-57.678,28.748
-0.327,0.415,1.073,23.804,-48.462,30.579
-0.368,0.546,1.095,16.174,-44.312,25.635
-0.448,0.478,1.159,0.916,-39.307,14.465
-0.465,0.186,1.139,-13.733,-31.982,1.648
-0.488,-0.108,1.210,-29.053,-24.536,-2.991
-0.528,-0.295,1.234,-35.767,-14.771,-0.427
-0.580,-0.416,1.202,-36.743,-4.028,6.165
-0.644,-0.420,1.110,-29.358,5.798,15.198
-0.692,-0.414,0.989,-19.958,13.977,22.400
-0.720,-0.410,0.957,-9.277,17.944,27.649
-0.741,-0.431,0.830,1.953,21.362,31.982
-0.727,-0.352,0.765,5.981,21.484,37.964
-0.701,-0.308,0.745,8.179,18.005,42.664
-0.670,-0.268,0.687,5.920,15.503,45.471
-0.614,-0.232,0.713,0.244,11.597,46.509
-0.574,-0.336,0.819,-8.179,7.263,44.189
-0.528,-0.367,0.932,-11.108,6.653,45.044
-0.461,-0.316,0.971,-9.399,7.935,47.241
-0.382,-0.217,0.929,-1.465,9.888,46.875
-0.310,-0.225,0.853,8.850,10.193,42.664
-0.243,-0.107,0.873,14.282,7.629,41.199
-0.179,-0.030,0.881,13.855,5.554,38.452
-0.140,-0.022,0.977,6.592,4.028,32.654
-0.128,-0.138,1.024,-0.732,5.127,24.780
-0.126,-0.283,1.047,-3.113,8.484,18.250
-0.102,-0.394,1.102,-1.892,10.803,16.174
-0.049,-0.433,1.176,0.061,12.634,17.151
0.006,-0.346,1.213,4.822,16.296,18.494
0.010,-0.276,1.094,11.536,22.034,17.517
0.012,-0.141,0.925,12.451,26.001,13.123
0.037,-0.045,0.930,3.174,22.766,4.700
0.060,-0.224,0.969,-5.005,19.531,-9.155
0.085,-0.387,1.104,-12.939,15.747,-19.531
0.161,-0.491,1.182,-12.512,16.602,-24.231
0.229,-0.564,1.116,-2.502,21.545,-27.039
0.267,-0.467,1.012,6.470,26.428,-24.292
0.300,-0.421,0.873,7.690,30.273,-24.475
0.337,-0.412,0.774,4.211,30.396,-28.198
0.396,-0.440,0.729,-11.719,28.503,-31.372
0.453,-0.480,0.843,-33.081,24.292,-34.241
0.500,-0.567,1.001,-52.612,21.423,-35.583
0.536,-0.648,1.093,-62.927,22.034,-33.691
0.547,-0.740,1.206,-65.918,23.376,-26.917
0.615,-0.647,1.337,-61.646,23.437,-13.062
0.741,-0.418,1.410,-48.218,24.780,2.625
0.840,0.073,1.443,-19.348,28.259,17.456
0.888,0.529,1.211,15.991,34.546,24.414
0.903,0.855,0.931,43.823,37.048,20.447
0.882,1.181,0.776,47.546,32.104,12.390
0.847,1.334,0.750,31.128,23.193,-1.709
0.785,1.265,0.916,4.700,13.123,-24.414
0.710,0.951,1.096,-20.569,6.226,-50.598
0.615,0.530,1.239,-34.607,5.371,-73.242
0.510,-0.006,1.349,-36.377,7.446,-89.539
0.393,-0.602,1.274,-30.884,14.709,-96.558
0.295,-1.014,1.158,-24.719,21.057,-88.379
0.237,-1.298,1.039,-16.418,23.071,-71.655
0.227,-1.429,1.005,-6.226,20.020,-51.331
